,time_micros,accel_x,accel_y,accel_z,velocity_x,velocity_y,velocity_z,distance_x,distance_y,distance_z,distance_total
0,17408024,0.0077793300151824,-0.062833048403263,0.30671924591064403,0.0,0.0,0.0,0.0,0.0,0.0,0.0
1,17409223,0.1496025025844574,-0.1023281142115593,0.2779955291748042,0.00017937340059876443,-0.00012269140893965958,0.00033331663948059023,2.1506870731791854e-07,-1.4710699931865183e-07,3.996466507372277e-07,4.770874799881275e-07
2,17410389,0.1561850160360336,-0.0927535519003868,0.28816932678222784,0.0003614851292967796,-0.00023084205045551058,0.0006693220745086679,6.365603680779635e-07,-4.162688301497772e-07,1.1800761896143344e-06,1.4039475255352329e-06
3,17411577,0.1400279402732849,-0.0795885324478149,0.314499320983888,0.000527838322341442,-0.00032539322700351467,0.0010429472678375267,1.2636322950195967e-06,-8.028359838299527e-07,2.419097543805316e-06,2.844880510740937e-06
4,17412747,0.1286581456661224,-0.1316501945257187,0.3121055984497083,0.0006783683527708052,-0.00047942395459860555,0.0014081108180236854,2.057323267761439e-06,-1.3637620107103212e-06,4.066587200893028e-06,4.757053427532243e-06
5,17413928,0.1645627468824386,-0.1184851825237274,0.3031286621093763,0.0008727169568389652,-0.0006193549551591276,0.0017661057679748589,3.088001993788257e-06,-2.095220212753251e-06,6.152358112871336e-06,7.195638568089964e-06
6,17415105,0.1543897837400436,-0.1041233390569686,0.24987071990966747,0.0010544337323009966,-0.0007419081252291797,0.0020602036053085377,4.32907049670653e-06,-2.9684460761479954e-06,8.577217756319486e-06,1.0055903137549389e-05
7,17416296,0.2058530449867248,-0.1125010848045349,0.308515014648437,0.0012996047088801857,-0.0008758969172313807,0.0024276449877548264,5.876899704982831e-06,-4.01163930457057e-06,1.1468542936735483e-05,1.3496617248190305e-05
8,17417471,0.1825150549411773,-0.1101074442267417,0.24927181243896435,0.001514059898436069,-0.0010052731641978022,0.0027205393673706093,7.655920085645213e-06,-5.192835272502987e-06,1.4665176693395949e-05,1.7339148132871486e-05
9,17418682,0.1136979013681411,-0.0706123784184455,0.3168920898437495,0.0016517480569928878,-0.0010907847544625398,0.00310429568817139,9.656186982663599e-06,-6.513775610157123e-06,1.84244787717715e-05,2.1797537424101337e-05
10,17419844,0.2698829174041748,-0.1041233390569686,0.3779301071166987,0.001965352007016539,-0.0012117760744467373,0.003543450472640994,1.1939926014816817e-05,-7.921859408664233e-06,2.2541968220980336e-05,2.6710634979453946e-05
11,17421028,0.1382327079772949,-0.1340438425540924,0.2995390319824214,0.002129019533261656,-0.0013704839840307827,0.003898104686508181,1.4460685142198618e-05,-9.54451244575668e-06,2.715732416980602e-05,3.221380742279525e-05
12,17422201,0.1687516272068023,-0.0538569018244743,0.26004356384277116,0.002326965191975235,-0.001433658129870891,0.004203135786895752,1.719021531238557e-05,-1.1226193432095235e-05,3.2087602447834735e-05,3.809389914817441e-05
13,17423390,0.1549881845712661,-0.0849742218852043,0.24867385864257763,0.0025112461434304706,-0.001534692479692399,0.004498809004821777,2.01760869769244e-05,-1.3050942790449497e-05,3.7436686354567824e-05,4.448490843679785e-05
14,17424567,0.1639643460512161,-0.0867694541811943,0.25465816497802685,0.002704232178732752,-0.0016368201272636647,0.0047985416650009145,2.335896825129285e-05,-1.497748008023883e-05,4.30845698942739e-05,5.1246916690601306e-05
15,17425756,0.1591770648956298,-0.1214772313833236,0.2893652343749995,0.002893493708893656,-0.0017812565553784363,0.005142596928672789,2.6799332271167407e-05,-1.709539412458379e-05,4.9199117642465845e-05,5.857482298097436e-05
16,17426892,0.1920896172523498,-0.0748012512922287,0.31808895111083935,0.0031117075140923256,-0.0018662307768464081,0.005503945977134703,3.033423200717629e-05,-1.921543228708131e-05,5.545160027249087e-05,6.606268570248045e-05
17,17428089,0.1699484437704086,-0.0909583196043968,0.32886070251464794,0.003315135801285505,-0.0019751078854128713,0.005897592238044736,3.430244956131504e-05,-2.1579636425920517e-05,6.251101818143041e-05,7.449809493041149e-05
18,17429277,0.1304533779621124,-0.0969424247741699,0.24687904357910107,0.003470114414304494,-0.002090275486044585,0.006190884541816708,3.842494548550878e-05,-2.4062883703341485e-05,6.986578901710866e-05,8.328701749173156e-05
19,17430464,0.2022625803947448,-0.0478728003799915,0.30671924591064403,0.003710200097233056,-0.002147100500095635,0.006554960286712642,4.2828953000924415e-05,-2.6611491996955004e-05,7.764652687743656e-05,9.258225455014514e-05
20,17431623,0.0951471924781799,-0.1292565613985061,0.3133024597167964,0.0038204756933152666,-0.0022969088547565037,0.006918077837524409,4.725688432947681e-05,-2.927360935961779e-05,8.566457909112734e-05,0.00010212040654212587
21,17432806,0.1902943849563598,-0.097540833055973,0.2540592575073237,0.00404559395071864,-0.0024122996602617196,0.0072186299391555735,5.204282197317696e-05,-3.212735985770741e-05,9.420421830914838e-05,0.00011231677220075419
22,17433954,0.1525945514440536,-0.1101074442267417,0.31569618225097607,0.004220772495776414,-0.002538703006234019,0.007581049156379694,5.688826879832828e-05,-3.504179090886406e-05,0.00010290726274067227,0.00012269517904852316
23,17435141,0.1543897837400436,-0.0592425912618637,0.31030982971191357,0.004404033169075846,-0.0026090239620618514,0.007949386924247735,6.211585617002131e-05,-3.813870235183148e-05,0.00011234318501975434,0.00013391762925469943
24,17436338,0.1741373091936111,-0.1262645125389099,0.2648310089111323,0.004612475528180599,-0.0027601625835709264,0.008266389641914361,6.763698937725349e-05,-4.144261696436588e-05,0.00012223805342112583,0.00014572026124413812
25,17437535,0.1908927857875824,-0.0951471924781799,0.2917589569091792,0.004840974192768335,-0.002874053772967308,0.008615625113334649,7.34316354859972e-05,-4.488285933060775e-05,0.00013255095668178742,0.00015803933772670832
26,17438700,0.1232724636793136,-0.0712107941508293,0.28577560424804815,0.004984586612954735,-0.002957014348153024,0.008948553692283624,7.923867889008947e-05,-4.832778104620602e-05,0.00014297602173329784,0.00017045962995318627
27,17439904,0.1507993191480636,-0.0700139701366424,0.3252701187133802,0.0051661489932090035,-0.0030413111681975415,0.009340178915214534,8.54587222779131e-05,-5.198951969271586e-05,0.00015422159714721613,0.0001838216646586876
28,17441123,0.1472088545560836,-0.0682187378406524,0.2648310089111323,0.005345596586912869,-0.003124469809625297,0.009663007915077204,9.197500451735989e-05,-5.57982483906491e-05,0.00016600080379569523,0.0001978108006157648
29,17442349,0.2004673480987548,-0.1035249307751655,0.2558550262451149,0.005591369555681943,-0.00325139137475565,0.009976686177253715,9.883002359262595e-05,-5.978445421609952e-05,0.0001782322210490083,0.00021238709741718882
30,17443515,0.1561850160360336,-0.1274613291025161,0.2618383789062495,0.005773481284379958,-0.0034000112844891836,0.010281989727058403,0.00010556190277021298,-6.374886737381391e-05,0.00019022102107075839,0.00022669642755260598
31,17444701,0.1531929671764373,-0.0867694541811943,0.2702164077758802,0.005955168143451213,-0.00350291985714808,0.010602466386680597,0.00011262473218834612,-6.790333032439154e-05,0.00020279554620536157,0.0002417048326582881
32,17445753,0.1274613291025161,-0.1196819990873336,0.3061212921142573,0.00608925746166706,-0.003628825320187955,0.010924505985984795,0.00011903063103801987,-7.172085456122927e-05,0.00021428812650261758,0.00025540472443614674
33,17447028,0.1268629282712936,-0.0736044272780418,0.3139004135131831,0.0062510076952129595,-0.0037226709649674583,0.011324729013214104,0.0001270006658494164,-7.646726004156278e-05,0.00022872715599446555,0.00027256654760585657
34,17448243,0.1484056860208511,-0.111304260790348,0.32108158111572394,0.006431320603728294,-0.003857905641827731,0.011714843134269709,0.00013481472038294628,-8.115461539638347e-05,0.00024296069040260324,0.0002894667122709907
35,17449422,0.1729404926300048,-0.0915567278861999,0.30133384704589794,0.006635217444539069,-0.003965851024005561,0.012070115739936823,0.00014263764175005784,-8.583035375368602e-05,0.00025719135685998875,0.0003063653709429034
36,17450629,0.2124355584383011,-0.0993360579013824,0.26004356384277116,0.006891627163574099,-0.004085749645892529,0.012383988321495048,0.00015095583573649176,-9.076185357627831e-05,0.00027213883076403325,0.00032416804533624165
37,17451807,0.1071153879165649,-0.0879662707448005,0.3629698181152339,0.0070178090905398125,-0.004189373912829904,0.012811566767234793,0.00015922281484514767,-9.569693604559193e-05,0.00028723085641583584,0.00034206925207200484
38,17453004,0.1298549771308899,-0.0933519601821899,0.3133024597167964,0.007173245498165488,-0.004301116209167986,0.013186589811515798,0.00016780918970645177,-0.00010084537214796601,0.00030301520442022024,0.0003607602075387826
39,17454173,0.2118371427059173,-0.0652266889810562,0.3007358932495112,0.007420883117988705,-0.00437736620858684,0.013538150070724475,0.00017648420207138057,-0.00010596251324580402,0.00031884130185289716,0.00037951877893114774
40,17455351,0.1490040868520736,-0.062833048403263,0.18344730377197216,0.007596409932300448,-0.004451383539605884,0.01375425099456786,0.0001854327729716305,-0.00011120624305545976,0.0003350438095244981,0.00039875618626818366
41,17456526,0.2710797190666199,-0.0736044272780418,0.308515014648437,0.007914928602203726,-0.004537868741657583,0.014116756136779773,0.00019473281407921987,-0.00011653823882690742,0.00035163099798521434,0.0004185049446926131
42,17457718,0.1531929671764373,-0.1238708719611167,0.25166553497314403,0.008097534619078039,-0.004685522821035234,0.01441674145446776,0.0002043850753451609,-0.00012212338202958141,0.0003688157537989399,0.00043899025013372504
43,17458902,0.1992705315351486,-0.0688171535730362,0.24687904357910107,0.008333470928415654,-0.004767002330865708,0.014709046242065416,0.00021425190492440504,-0.00012776751278932642,0.00038623126454954537,0.00045978582601429536
44,17460103,0.1543897837400436,-0.0897615030407905,0.30971187591552685,0.008518893058687447,-0.004874805896017698,0.015081010205039965,0.00022448309548788866,-0.00013362215467044368,0.00040434355780579834,0.0004813951112315615
45,17461312,0.1759325414896011,-0.1603738814592361,0.3192858123779292,0.008731595501348374,-0.0050686979187019145,0.015467026752204882,0.00023503959444901886,-0.0001397502104541543,0.000423043193149214,0.0005037253969680533
46,17462512,0.1478072702884674,-0.111304260790348,0.27141326904296825,0.008908964225694534,-0.005202263031650332,0.015792722675056443,0.0002457303515198523,-0.0001459929260921347,0.00044199446035928175,0.0005263615137102126
47,17463692,0.1645627468824386,-0.1190835908055305,0.2815861129760737,0.009103148267015812,-0.005342781668800858,0.01612499428836821,0.00025647206647493097,-0.00015229740846131972,0.00046102195361955625,0.0005491025980863209
48,17464883,0.1388311237096786,-0.0448807515203952,0.3330492401123042,0.00926849613535404,-0.005396234643861649,0.016521655933341966,0.0002675108453721376,-0.00015872432392215893,0.00048069924583616654,0.0005725619864641046
49,17466074,0.1442168056964874,-0.0544553101062774,0.3192858123779292,0.009440258350938556,-0.005461090918198225,0.01690192533588408,0.00027875419306810543,-0.000165228483205733,0.0005008294389112045,0.0005965186323122101
50,17467272,0.2100419104099273,-0.0736044272780418,0.30492443084716747,0.00969188855960965,-0.005549269022077319,0.017267224804038986,0.0002903650755625178,-0.00017187650749418164,0.0005215155742264433,0.0006211536887885002
51,17468330,0.1998689472675323,-0.1023281142115593,0.29355472564697216,0.009903349905818698,-0.005657532166913149,0.017577805703773482,0.00030084281976287396,-0.00017786217652677574,0.0005401128926610356,0.0006433220755270181
52,17469308,0.1914912015199661,-0.1190835908055305,0.3282627487182612,0.010090628300905225,-0.0057739959187209575,0.017898846672019943,0.00031071145424115925,-0.00018350914453528483,0.0005576179647062711,0.0006641950078763708
53,17470461,0.2148291915655136,-0.0921551436185836,0.28757041931152294,0.010338326358780263,-0.005880250799313184,0.018230415365486127,0.0003226315445328329,-0.00019028907370689292,0.0005786376336226766,0.0006892913434421758
54,17471670,0.1687516272068023,-0.1083122119307518,0.2779955291748042,0.010542347076073287,-0.006011200263537463,0.018566511960258464,0.00033537724214780553,-0.00019755661482550972,0.0006010845465826291,0.0007161069352774258
55,17472855,0.1567834168672561,-0.1154931336641311,0.30971187591552685,0.010728135425060986,-0.006148059626929459,0.018933520533218364,0.0003480900826265028,-0.00020484206548342112,0.0006235207684144929,0.0007429031740803369
56,17474080,0.1478072702884674,-0.0442823395133018,0.32108158111572394,0.01090919933116436,-0.006202305492833253,0.019326845470085126,0.0003614538518071792,-0.00021243988971214185,0.0006471961541153472,0.0007711306346066466
57,17475275,0.1902943849563598,-0.0831789895892143,0.3779301071166987,0.011136601121187209,-0.006301704385392365,0.01977847194808958,0.0003747620901469979,-0.00021997042645268574,0.0006708314280933143,0.0007992799369700446
58,17476483,0.1813182383775711,-0.1376343071460724,0.3168920898437495,0.011355633553147315,-0.00646796662842482,0.02016127759262083,0.00038847969547919984,-0.00022778373013982293,0.0006951862514252002,0.0008283029794022505
59,17477665,0.1406263560056686,-0.1125010848045349,0.2642321014404292,0.011521853905946015,-0.006600942910663781,0.020473599936523416,0.000402098526796028,-0.00023558604466022753,0.0007193860465501709,0.0008571465998656656
60,17478834,0.1819166392087936,-0.1388311237096786,0.30552238464355597,0.011734514457181095,-0.006763236494280395,0.020830755604171733,0.0004158161741964727,-0.00024349226812204133,0.0007437371998514476,0.0008861921901040877
61,17480018,0.1819166392087936,-0.1089106202125549,0.32108158111572394,0.011949903758004306,-0.00689218666861206,0.02121091619621275,0.0004299648602459498,-0.000251652617137678,0.0007688509246277635,0.0009161498594987224
62,17481227,0.2387655973434448,-0.1256660968065261,0.28457874298095476,0.012238571365192531,-0.00704411697965115,0.021554971896476725,0.00044476129302646757,-0.0002601689545660762,0.0007949108856506039,0.0009473034407307976
63,17482421,0.0359046012163162,-0.0724076107144355,0.35279697418212663,0.012281441459044813,-0.007130571666844185,0.021976211483650185,0.00045942533412856706,-0.0002686828571362882,0.0008211504821620822,0.0009785449553868664
64,17483614,0.1884991526603698,-0.0999344736337661,0.288767280578611,0.012506320948168633,-0.007249793493889268,0.02232071084938047,0.0004743453750197322,-0.0002773318607744981,0.0008477790902053931,0.0010102702022690465
65,17484790,0.1849086880683899,-0.0843758136034011,0.2833818817138667,0.01272377356533706,-0.007349019450686868,0.022653967942275977,0.0004893085327325686,-0.00028597430764850583,0.0008744201565055096,0.001042024354294592
66,17486008,0.1669563949108123,-0.0748012512922287,0.28457874298095476,0.012927126454338429,-0.007440127374760803,0.02300058485122678,0.0005050537727539528,-0.0002950363827909645,0.0009024348688543039,0.0010754136288272818
67,17487239,0.1950816661119461,-0.0502664409577846,0.2726101303100599,0.013167271985322235,-0.0075020053635798355,0.023336167921638465,0.0005212626845678845,-0.0003042713513935313,0.0009311616915658408,0.0011096656872416674
68,17488393,0.1693500280380249,-0.1400279402732849,0.2678226852416987,0.013362701917678115,-0.007663597606655206,0.023645235300407384,0.000536683242580885,-0.0003131151430316114,0.000958448293102511,0.0011422316429752575
69,17489702,0.1358390748500824,-0.0771948918700218,0.3031286621093763,0.013540515266656873,-0.007764645720113065,0.024042030719108556,0.0005544077770649388,-0.00032327906427923937,0.000989919311313824,0.0011797531858754962
70,17490913,0.1609722971916198,-0.0873678624629974,0.23491043090820263,0.013735452718555925,-0.007870448201555755,0.02432650725093839,0.00057104141030711,-0.00033281017705132337,0.0010193787115947105,0.0012149007629790008
71,17492097,0.1890975683927536,-0.1328470259904861,0.31569618225097607,0.013959344239532946,-0.008027739080328491,0.024700291530723544,0.000587569273886717,-0.0003423150201224323,0.0010486238567670872,0.0012498116728524606
72,17493281,0.1310517936944961,-0.0538569018244743,0.33783668518066357,0.014114509563267229,-0.008091505652088668,0.02510029016597745,0.0006042808532096255,-0.0003518953628145053,0.0010783426003236046,0.0012852270070298003
73,17494457,0.1466104537248611,-0.0885646790266037,0.29654640197754034,0.014286923456847666,-0.008195657714623954,0.02544902873470304,0.0006210822751948783,-0.00036153345628690305,0.0011082706581156153,0.0013208760290867646
74,17495648,0.1962784826755523,-0.0999344736337661,0.32646697998046825,0.014520691129714249,-0.008314679672721769,0.025837850907859776,0.0006383764183303679,-0.00037143623977711467,0.0011390435385468763,0.0013575380342389898
75,17496813,0.0287236794829368,-0.0592425912618637,0.2648310089111323,0.01455415421631187,-0.00838369729154184,0.026146379033241244,0.0006553320079923712,-0.0003812032471217609,0.0011695040701206023,0.001393741628259751
76,17497990,0.1663579791784286,-0.093950368463993,0.2893652343749995,0.01474995755780488,-0.00849427687522396,0.026486961914100618,0.0006726927080379075,-0.00039120101100389954,0.0012006792242934988,0.0014307984868973983
77,17499166,0.1178867742419242,-0.1119026690721511,0.3031286621093763,0.014888592404313382,-0.00862587441405281,0.026843441220741244,0.00069020169270538,-0.00040134503931482565,0.0012322471111690905,0.0014682946435169474
78,17500370,0.1843102872371673,-0.095745600759983,0.2510675811767573,0.015110501990146932,-0.00874115211736783,0.02714572658847806,0.000708394737101517,-0.0004118693864641365,0.0012649305659816182,0.001507152557578047
79,17501547,0.1436184048652649,-0.0945487841963768,0.32646697998046825,0.015279540852673348,-0.008852436036366965,0.02752997822391507,0.0007263787566851135,-0.0004222887036789404,0.0012973333503511662,0.0015456479771770908
80,17502727,0.2136323750019073,-0.0987376496195793,0.26064247131347607,0.0155316270551756,-0.008968946462918069,0.027837536340064972,0.0007447060766102207,-0.00043287206050518376,0.0013301816432324427,0.0015847234980584952
81,17503903,0.1777277737855911,-0.1178867742419242,0.2450832748413081,0.015740634917147455,-0.009107581309426571,0.02812575427127835,0.000763217063272786,-0.0004435825761250694,0.0013632575302554662,0.0016241111049773416
82,17505103,0.1819166392087936,-0.0706123784184455,0.33245128631591747,0.015958934884198007,-0.009192316163528705,0.02852469581485745,0.0007823677851338237,-0.00045461335552130384,0.0013974871652332951,0.001664855258340897
83,17506287,0.1394295245409011,-0.1017296984791755,0.2528623962402339,0.016124019441254436,-0.00931276412652805,0.02882408489200589,0.0008014586241522689,-0.00046563966824711303,0.00143161488174543,0.001705484504915923
84,17507480,0.1855071038007736,-0.1089106202125549,0.2762007141113276,0.01634532941608876,-0.009442694496441627,0.0291535923439407,0.0008209586021456629,-0.0004769048027813679,0.0014663951174117512,0.0017469189614066018
85,17508670,0.1442168056964874,-0.0382982417941093,0.33963245391845476,0.01651694741486758,-0.009488269404176616,0.029557754964103664,0.0008406137695693553,-0.0004881958433723381,0.0015015688458190346,0.001788763732249158
86,17509862,0.1196819990873336,-0.1053201630711555,0.26842159271240185,0.01665960835777968,-0.009613811038557433,0.029877713502616848,0.0008604720227318287,-0.0004996555061302986,0.0015371830803141539,0.0018311197528055449
87,17511052,0.1645627468824386,-0.0610378198325634,0.3414272689819331,0.01685543802656978,-0.009686446044158184,0.030284011952705348,0.0008805299939834468,-0.0005111823769228468,0.0015732210545378732,0.0018739436969189437
88,17512247,0.2597099542617798,-0.0610378198325634,0.3450178527832026,0.01716579142191261,-0.009759386238858097,0.030696308286781274,0.0009010431147326324,-0.0005228448434782822,0.001609903142940577,0.0019175592701684244
89,17513431,0.1896959692239761,-0.0921551436185836,0.27739757537841747,0.017390391449473797,-0.0098684979289025,0.031024747016029322,0.0009216333382088093,-0.0005345291450261027,0.0016466364434075556,0.0019612600525524744
90,17514627,0.0873678624629974,-0.0736044272780418,0.2420915985107417,0.017494883412979542,-0.009956528823927039,0.03131428856784817,0.0009425572187707329,-0.0005464371534995195,0.001684088332534702,0.002005781938586792
91,17515812,0.1442168056964874,-0.0963440090417862,0.23491043090820263,0.01766578032772988,-0.010070696474641556,0.031592657428474384,0.0009634911684590928,-0.0005583709288219697,0.0017215256315874442,0.0020503033497667428
92,17516999,0.2028609961271286,-0.1268629282712936,0.31868785858154425,0.017906576330132783,-0.01022128277049958,0.03197093991661068,0.0009847462745629604,-0.0005705035914705527,0.001759475137268461,0.00209545993323955
93,17518174,0.1825150549411773,-0.064628280699253,0.27739757537841747,0.018121031519688666,-0.010297221000321204,0.03229688206768032,0.0010060384865985946,-0.0005826028261459302,0.0017974239736979853,0.0021406243086480804
94,17519367,0.1484056860208511,-0.0430855192244052,0.343820991516111,0.01829807950311154,-0.01034862202475592,0.032707060510559036,0.0010278680954458068,-0.000594948732221464,0.0018364434968870824,0.002187007437771114
95,17520578,0.1190835908055305,-0.1083122119307518,0.28577560424804815,0.01844228973157704,-0.01047978811340406,0.03305313476730342,0.0010502017083107466,-0.0006076397556267964,0.001876470843090287,0.0022345676373126356
96,17521778,0.1753341257572174,-0.080186940729618,0.23191875457763622,0.0186526906824857,-0.010576012442279603,0.03333143727279658,0.0010725849371297294,-0.0006203309705575319,0.001916468567817643,0.002282126361931662
97,17522935,0.2064514458179474,-0.1065169796347618,0.35698646545410107,0.018891555005297066,-0.010699252587717022,0.03374447061332698,0.001094442466270858,-0.0006327100058015205,0.001955510920317262,0.0023285508847561104
98,17524136,0.1172883585095405,-0.0999344736337661,0.2923578643798841,0.019032418323867022,-0.010819273890551175,0.03409559240844722,0.0011173004006778224,-0.0006457039537440724,0.0019964597267998073,0.00237721375184671
99,17525328,0.1280597448348999,-0.1035249307751655,0.2678226852416987,0.019185065539710222,-0.010942675608035173,0.034414837049255326,0.001140168998801157,-0.0006587476230688503,0.00203748221256252,0.002425957036559954
100,17526525,0.1472088545560836,-0.1089106202125549,0.2923578643798841,0.019361274538613853,-0.011073041620429602,0.034764789412918044,0.0011633444444238779,-0.0006720020538885045,0.0020790956654897826,0.0024753981180934657
101,17527707,0.1681532114744186,0.0221411697566509,0.37074989318847607,0.019560031634576616,-0.01104687075777724,0.035203015786666826,0.0011864644018159474,-0.0006850594551241972,0.0021207056301496227,0.0025247567414663622
102,17528906,0.1238708719611167,-0.0945487841963768,0.3061212921142573,0.019708552810057994,-0.011160234750028697,0.03557005521591182,0.001210094956635207,-0.0006984405765894816,0.0021633541263535007,0.0025753155377761633
103,17530104,0.2016641795635223,-0.1107058525085449,0.30193275451660107,0.019950146497175095,-0.011292860361333933,0.03593177065582271,0.0012339952321388226,-0.0007119694233023596,0.002206400387599176,0.0026263753279104334
104,17531291,0.1448152214288711,-0.1460120379924774,0.23311561584472784,0.020122042165011164,-0.011466176650431004,0.0362084788918304,0.0012578800961886908,-0.0007255797749864212,0.002249379852043779,0.0026773938942631337
105,17532480,0.1089106202125549,-0.1328470259904861,0.3318523788452161,0.020251536892443894,-0.011624131764333691,0.03660305137027737,0.0012819591735538066,-0.000739400867654214,0.0022929008801230387,0.002729015832093242
106,17533672,0.1615706980228424,-0.0909583196043968,0.21576160430908153,0.02044412916448712,-0.011732554081302133,0.0368602392026138,0.0013063285755178752,-0.0007533860721191261,0.0023368382852525546,0.002781168476072556
107,17534876,0.1310517936944961,-0.0879662707448005,0.27141326904296825,0.020601915524095293,-0.011838465471278873,0.03718702077854153,0.0013311332818088859,-0.0007676395845465458,0.0023816114582699186,0.002834300528148816
108,17536078,0.1944832503795623,-0.0813837572932243,0.3504032516479487,0.020835684391051528,-0.01193628874754533,0.037608205487022366,0.0013561777744469298,-0.0007819870036210953,0.0024268165212653196,0.0028879335618435605
109,17537261,0.1436184048652649,-0.1208788231015205,0.34023040771484325,0.021005584964007135,-0.012079288395274428,0.03801069805934903,0.0013810273814593504,-0.000796276801792705,0.0024717831770695296,0.002941259160267525
110,17538454,0.1693500280380249,-0.0748012512922287,0.25166553497314403,0.0212076195474565,-0.012168526288066058,0.03831093504257199,0.001406328071579466,-0.0008107938536543678,0.002517488122575318,0.002995478553644462
111,17539648,0.1693500280380249,-0.1250676959753036,0.2869724655151362,0.021409823480933902,-0.012317857117060571,0.03865358016639706,0.001431891400815701,-0.0008255013750521381,0.002563640497293996,0.0030502488592422635
112,17540834,0.1178867742419242,-0.1005328819155693,0.2540592575073237,0.021549637195184823,-0.012437089115012435,0.03895489444580075,0.0014574492705291902,-0.0008402517627425428,0.0026098410021067157,0.0031050686719033133
113,17542036,0.2040578126907348,-0.0017952299676835,0.3061212921142573,0.021794914686039085,-0.012439246981433592,0.03932285223892208,0.0014836467579818092,-0.000855203737614226,0.0026571070704979,0.0031611388959343766
114,17543284,0.1507993191480636,-0.0915567278861999,0.25226444244384716,0.02198311223633587,-0.01255350977783557,0.039637678263092,0.0015110816820527563,-0.0008708705178169648,0.002706574892970239,0.0032198339957045983
115,17544542,0.1196819990873336,-0.1190835908055305,0.28816932678222784,0.022133672191187736,-0.012703316935068926,0.04000019527618404,0.0015389258416692705,-0.0008868512905212815,0.002756895138627679,0.003279522642557246
116,17545716,0.1280597448348999,-0.010172969661653,0.3198847198486323,0.022284014331623907,-0.012715260001451706,0.04037573993728634,0.001565087274494597,-0.0009017790057629858,0.002804296257314053,0.003335682996150175
117,17546897,0.1364374756813049,-0.095745600759983,0.32347530364990185,0.02244514699040353,-0.012828335555949246,0.040757764270896876,0.0015915949930902634,-0.0009169292700545619,0.002852431176917982,0.0033926829394104146
118,17547971,0.1549881845712661,-0.0807853490114212,0.34561580657958935,0.022611604300633067,-0.012915099020787513,0.04112895564716335,0.0016158798561091434,-0.0009308000864028876,0.0028966036752830354,0.0034449628970266307
119,17549273,0.1041233390569686,-0.0831789895892143,0.29355472564697216,0.02274717288808524,-0.01302339806523267,0.04151116389995571,0.0016454966752094304,-0.0009477565506838206,0.002950651210680778,0.0035088807837516116
120,17550506,0.2166244238615036,-0.080186940729618,0.2696184539794917,0.023014270802706474,-0.01312226856315229,0.04184360345371242,0.0016738732711091674,-0.0009639363078221874,0.003002244373739205,0.003569943446739778
121,17551680,0.1472088545560836,-0.062833048403263,0.27141326904296825,0.023187093997955315,-0.01319603456197772,0.04216224263156887,0.001701094919462767,-0.0009794284523979492,0.003051742846588667,0.003628517385943435
122,17552901,0.1591770648956298,-0.1035249307751655,0.42819637298583935,0.02338144919419288,-0.013322438502454197,0.04268507040298458,0.0017296436689288766,-0.0009956951498094459,0.003103861317550711,0.0036901261674104633
123,17554101,0.1244692802429199,-0.0730060189962387,0.3318523788452161,0.023530812330484385,-0.013410045725249684,0.04308329325759884,0.0017578806437254578,-0.0010117872046797455,0.0031555612694598293,0.0037511897619892827
124,17555301,0.1938848495483398,-0.0867694541811943,0.30193275451660107,0.02376347414994239,-0.013514169070267116,0.04344561256301876,0.0017863968127053887,-0.001028004207564066,0.0032076960045354518,0.003812783744290528
125,17556479,0.1573818325996399,-0.1442168056964874,0.3001369857788081,0.023948869948744768,-0.013684056467377578,0.04379917393226619,0.00181460858150501,-0.001044124026082637,0.0032592914314276615,0.0038737552737482545
126,17557675,0.1537913680076599,-0.080186940729618,0.20319503784179638,0.02413280442488193,-0.0137799600484902,0.04404219519752498,0.0018434714155971688,-0.0010606048583006312,0.0033119658968839014,0.00393603704602697
127,17558854,0.1142963096499443,-0.0825805813074112,0.35279697418212663,0.024267559773959214,-0.013877322553851639,0.04445814283008571,0.0018720828685706667,-0.0010769662215916224,0.0033643820472805726,0.003997951609175495
128,17560070,0.1645627468824386,-0.0933519601821899,0.25465816497802685,0.02446766807416826,-0.013990838537433182,0.04476780715869899,0.0019018355529488553,-0.001093979081253141,0.0034188197007855507,0.004062277298161604
129,17561252,0.1567834168672561,0.0,0.24029582977294872,0.024652986072905357,-0.013990838537433182,0.04505183682949062,0.0019309753824870294,-0.001110516252404387,0.0034720709719180086,0.004125189584571948
130,17562461,0.2016641795635223,-0.0867694541811943,0.3462147140502907,0.024896798065997656,-0.014095742807538246,0.04547041041877742,0.0019610756113488206,-0.0011275580054587008,0.0035270446981143103,0.004190137099379616
131,17563643,0.1992705315351486,-0.0305189099162817,0.20798152923583935,0.025132335834272202,-0.01413181615905929,0.04571624458633418,0.0019907820323049304,-0.001144261812158709,0.003581081299215357,0.00425402062365744
132,17564836,0.1394295245409011,-0.1292565613985061,0.2367052459716792,0.025298675257049496,-0.014286019236807708,0.04599863394477839,0.0020209633518865904,-0.0011613050331082204,0.003635957669511478,0.004318924683769156
133,17566044,0.1705468446016311,-0.1286581456661224,0.4293932342529292,0.025504695845328267,-0.014441438276772384,0.04651734097175593,0.002051773024467747,-0.0011787502905465615,0.003692150617405359,0.004385339322447455
134,17567263,0.2076482772827148,-0.0706123784184455,0.21037525177001903,0.025757819095335897,-0.014527514766064469,0.046773788403663585,0.0020831718059449614,-0.001196459331046394,0.0037491678654694247,0.004452794559307732
135,17568450,0.1837118715047836,-0.0963440090417862,0.2666258239746089,0.025975885086812076,-0.014641875104797069,0.047090273256721445,0.002114005181543007,-0.0012138392367957882,0.003805064019825153,0.004518952953433308
136,17569646,0.1711452603340149,-0.0855726301670074,0.22952503204345476,0.026180574818171556,-0.01474421997047681,0.04736478519504542,0.0021453171490255405,-0.0012314733238804785,0.0038617123029184275,0.004586036865076844
137,17570699,0.1675547957420349,-0.1107058525085449,0.29355472564697216,0.02635701001808792,-0.014860793233168306,0.04767389832115168,0.002173071080574587,-0.0012471217391550047,0.0039119129178506,0.004645493862911564
138,17571673,0.1460120379924774,-0.0448807515203952,0.3641666793823237,0.026499225743092592,-0.014904507085149172,0.048028596666870066,0.002198881326448359,-0.00126163872905594,0.003958692771004132,0.004700857350064726
139,17572890,0.1705468446016311,-0.066423512995243,0.2923578643798841,0.026706781252972777,-0.014985344500464383,0.04838439618782039,0.002231383479233227,-0.0012798758933130051,0.004017576581164709,0.004770542539292765
140,17574084,0.1579802483320236,-0.0418886989355087,0.2953495407104487,0.026895409669481212,-0.01503535960699338,0.04873704353942866,0.0022634965983785874,-0.0012978281126837553,0.0040757686111507875,0.004839386782701475
141,17575278,0.1178867742419242,-0.1370358914136886,0.3641666793823237,0.02703616647792607,-0.015198980461341325,0.049171858554611154,0.0022957777811532312,-0.0013159756953545969,0.004134479810264993,0.0049087993392162325
142,17576440,0.1621691137552261,-0.1023281142115593,0.20858043670654425,0.027224606988109645,-0.015317885730055157,0.04941422902206416,0.0023274127744734147,-0.0013337750785729209,0.004191899144388632,0.004976728304793259
143,17577621,0.2303878515958786,-0.1089106202125549,0.25226444244384716,0.027496695040844378,-0.015446509172526185,0.049712153328590344,0.0023598863713166517,-0.0013520174059056744,0.0042506091974696975,0.005046255374137536
144,17578802,0.1639643460512161,-0.0742028430104255,0.3468126678466792,0.027690336933530863,-0.015534142730121497,0.050121739089317274,0.002392588659235152,-0.001370363228469948,0.004309802971334181,0.005116324610691172
145,17579990,0.1101074442267417,-0.095745600759983,0.31808895111083935,0.027821144577272233,-0.015647888503824356,0.05049962876323695,0.0024256401789929513,-0.0013889529200124913,0.004369796530304906,0.005187296232934936
146,17581217,0.2369703650474548,-0.0987376496195793,0.2618383789062495,0.028111907215185458,-0.01576903959990758,0.05082090445415492,0.002460133489145984,-0.001408301531601578,0.004432153780070155,0.005261136485448663
147,17582420,0.1914912015199661,-0.1789245903491974,0.25465816497802685,0.028342271130613977,-0.015984285882097667,0.051127258226623486,0.0024942292413161126,-0.0014275306275177413,0.004493659871716783,0.005334041829927399
148,17583605,0.1938848495483398,-0.0969424247741699,0.2815861129760737,0.02857202467732876,-0.01609916265545506,0.051460937770500134,0.002528087090558747,-0.0014466081352644555,0.004554641082974826,0.005406353191309756
149,17584818,0.2112387269735336,-0.1322486102581024,0.3863081359863276,0.028828257253147655,-0.016259580219698137,0.05192952953945155,0.002563055766606815,-0.0014663310060709493,0.00461763160230618,0.005481049452132158
150,17586027,0.1334454268217086,-0.1382327079772949,0.23251670837402294,0.0289895927741751,-0.016426703563642685,0.05221064223987574,0.002598104184270793,-0.0014861908906793932,0.00468075426877419,0.005555930996737775
151,17587252,0.1735389083623886,0.0197475310415029,0.17746299743652294,0.029202177936919028,-0.016402512838116844,0.05242803441173548,0.0026338768522435187,-0.0015062839689060862,0.004744978610928566,0.005632141749453513
152,17588437,0.2351751327514648,-0.1681532114744186,0.43956703186035107,0.029480860469229514,-0.01660177439371403,0.052948921344489995,0.0026688116718995556,-0.0015259570715626374,0.004807723082721787,0.005706601612558494
153,17589661,0.1370358914136886,-0.0388966500759124,0.3492063903808589,0.02964859240031987,-0.016649383893406946,0.05337634996631617,0.002705101548997547,-0.0015463359174481676,0.0048730557350805575,0.005784064432315801
154,17590842,0.1807198226451873,-0.1142963096499443,0.18943161010742138,0.029862022510863836,-0.01678436783510353,0.05360006869785303,0.0027403685975828772,-0.001566158255861425,0.004936357416212722,0.0058591890457314645
155,17592066,0.1705468446016311,-0.2016641795635223,0.43118900299072394,0.03007077184865623,-0.017031204790889282,0.05412784403751368,0.0027771752223256325,-0.0015870044505254734,0.005002609897314639,0.005937793456006825
156,17593250,0.1077138036489486,-0.0730060189962387,0.29894012451172003,0.030198304992176586,-0.01711764391738083,0.05448178914493556,0.0028129300154363696,-0.0016072717409236523,0.005067116335662243,0.00601428014645558
157,17594452,0.1831134557723999,-0.0777933001518249,0.25046867370605597,0.03041840736601501,-0.017211151464163323,0.05478285249073024,0.0028494929410903197,-0.0016279595449835765,0.005132965324356101,0.0060923883102170055
158,17595635,0.1591770648956298,-0.0963440090417862,0.21695846557617138,0.03060671383378654,-0.017325126426859756,0.05503951435550685,0.002885700683555689,-0.0016484551695465516,0.005198077069838665,0.006169657859643518
159,17596833,0.2034593969583511,0.0915567278861999,0.26542896270751903,0.030850458191342644,-0.01721544146685209,0.055357498252830456,0.0029226595324689177,-0.0016690792684238404,0.005264395352745556,0.00624832959894264
160,17598015,0.1238708719611167,-0.0951471924781799,0.33783668518066357,0.030996873562000683,-0.017327905448361297,0.055756821214714,0.0029592978370192027,-0.0016895608526638034,0.005330299915421347,0.006326464790969866
161,17599230,0.1496025025844574,-0.1537913680076599,0.21755641937255987,0.0311786406026408,-0.017514761960490604,0.05602115226425166,0.002997179885351411,-0.0017108412884457994,0.005398365615422413,0.006407215970855125
162,17600521,0.1322486102581024,-0.0514632612466812,0.24628013610839794,0.03134937355848401,-0.01758120103076007,0.0563390999199676,0.003037651926615414,-0.0017335386189765106,0.005471099393419092,0.006493490120376259
163,17601732,0.1693500280380249,-0.093950368463993,0.31808895111083935,0.03155445644243806,-0.017694974926969965,0.05672430563976283,0.0030758643733672063,-0.0017549672336130712,0.005539792527548845,0.006574964097445033
164,17602938,0.1920896172523498,-0.1244692802429199,0.32048267364501903,0.03178611652084439,-0.017845084878942926,0.05711080774417872,0.0031141984298913446,-0.0017764884059770765,0.005608668161688324,0.006656673453403357
165,17604152,0.1753341257572174,-0.1136979013681411,0.2558550262451149,0.03199897214951365,-0.017983114131203848,0.05742141574604029,0.003153045182080854,-0.001798319906532358,0.005678377760404017,0.006739408163653896
166,17605359,0.1448152214288711,-0.0526600815355777,0.2726101303100599,0.032173764121778296,-0.018046674849617292,0.057750456173324534,0.0031918789153758402,-0.001820102243075846,0.0057480825610052196,0.006822119634967046
167,17606544,0.1861055195331573,-0.1729404926300048,0.44794410705566357,0.03239429916242509,-0.018251609333383847,0.058281269940185496,0.003230266159883314,-0.001841730400135906,0.005817145865884339,0.006904040581822163
168,17607598,0.1543897837400436,0.0275268610566854,0.25046867370605597,0.03255702599448709,-0.0182225960218301,0.058545263922271676,0.0032645812652815033,-0.0018609370163429149,0.005878852574058413,0.006977211835965387
169,17608790,0.2267973870038986,-0.1400279402732849,0.225934448242187,0.03282736847979574,-0.018389509326635856,0.05881457778457636,0.00330371148850942,-0.0018828573114602648,0.0059489595507776286,0.007060437733697315
170,17609959,0.1460120379924774,-0.1962784826755523,0.3198847198486323,0.03299805655220894,-0.018618958872883576,0.059188523022079415,0.0033422862166189522,-0.0019046228743826658,0.006018150934190439,0.0071425909944585215
171,17611163,0.1071153879165649,-0.0323141403496265,0.2528623962402339,0.033127023479260484,-0.018657865097864525,0.059492969347152654,0.003382171152887982,-0.0019270869439604948,0.006089780469284411,0.00722759793853314
172,17612380,0.1107058525085449,-0.1406263560056686,0.3671593093872083,0.033261752501763386,-0.018829007373123423,0.059939802226676886,0.003422650705682628,-0.001950001845933586,0.006162727208594277,0.0073141131861492546
173,17613543,0.1597754657268524,-0.0676203295588493,0.22054809570312273,0.03344757136840371,-0.018907649816400366,0.06019629966197962,0.0034615502311840813,-0.0019719914426700597,0.006232735505101159,0.007397166493294788
174,17614728,0.1537913680076599,0.0047872802242636,0.24029582977294872,0.033629814139492786,-0.018901976889334614,0.06048105022026056,0.0035014015609393804,-0.001994390285283921,0.006304405549612168,0.0074821744723685985
175,17615925,0.1256660968065261,-0.1980737149715423,0.43118900299072394,0.033780236457370195,-0.01913907112615555,0.06099718345684046,0.0035418365039788526,-0.002017299753421929,0.006377419178210006,0.007568723768950358
176,17617130,0.095745600759983,-0.0293220896273851,0.2690195465087868,0.03389560990628598,-0.019174404244156548,0.061321352010383544,0.0035826807139159272,-0.002040404910536138,0.006451311407382519,0.007656257060197819
177,17618326,0.1723420768976211,-0.1035249307751655,0.2313198471069331,0.03410173103025553,-0.019298220061363645,0.06159801054752344,0.003623466384228113,-0.0020634855817295286,0.006524982627997357,0.007743570215301473
178,17619517,0.1723420768976211,-0.081982173025608,0.30671924591064403,0.0343069904438406,-0.019395860829437145,0.06196331316940302,0.003664326009846727,-0.002086586051977388,0.006598780933982116,0.007831030345582355
179,17620707,0.1125010848045349,-0.0831789895892143,0.21695846557617138,0.034440866734758,-0.01949484382704831,0.06222149374343866,0.0037053106412610892,-0.0021097849161315755,0.006672824511536808,0.007918781869855073
180,17621889,0.1789245903491974,-0.1208788231015205,0.45093673706054815,0.03465235560055075,-0.019637722595954307,0.06275450096664423,0.0037462697255809404,-0.0021329967042399934,0.006747000331679381,0.00800663632699679
181,17623094,0.1238708719611167,-0.0640298724174499,0.19242328643798778,0.0348016200012639,-0.019714878592217332,0.062986371026802,0.0037882056776824633,-0.0021567531329436153,0.006822898908766678,0.008096544685984095
182,17624287,0.2764654159545898,-0.1346422582864761,0.3240732574462868,0.03513144324249772,-0.0198755068063531,0.06337299042293543,0.003830117489470763,-0.0021804646125635945,0.00689850288634124,0.008186181526368099
183,17625481,0.109509028494358,-0.078391708433628,0.3462147140502907,0.03526219702251999,-0.019969106506222852,0.06378637079151148,0.003872220552715652,-0.0022043077257320244,0.006974663813066304,0.008276412257970961
184,17626662,0.1065169796347618,-0.0263300407677888,0.24747699737548778,0.035387993575468644,-0.02000020228436961,0.06407864112541192,0.00391401377312828,-0.002227927964629865,0.007050340688235416,0.008366030758490283
185,17627867,0.1597754657268524,-0.1573818325996399,0.398874702453611,0.0355805230116695,-0.020189847392652175,0.06455928514186852,0.003956888303357342,-0.0022522567307380107,0.007128134626831368,0.008458127965728182
186,17629067,0.1304533779621124,-0.0251332204788923,0.21635955810546825,0.03573706706522404,-0.020220007257226846,0.06481891661159508,0.003999772783835611,-0.002276520739446683,0.0072059173267652816,0.008550203127389374
187,17630270,0.1310517936944961,-0.0496680289506912,0.33963245391845476,0.03589472237303852,-0.020279757896054528,0.06522749445365898,0.004042954134850377,-0.0023009172881956366,0.007284386002593033,0.0086430305991819
188,17631464,0.2112387269735336,-0.1083122119307518,0.3306555175781227,0.03614694141304492,-0.020409082677099847,0.06562229714164726,0.004086113582897553,-0.0023252857329120937,0.00736273902538016,0.00873574289387459
189,17632661,0.1663579791784286,-0.0430855192244052,0.20977729797363232,0.0363460719141215,-0.02046065604361146,0.0658734005673217,0.0041296198309787565,-0.002349777138196297,0.007441589485859244,0.00882906940870066
190,17633849,0.1334454268217086,-0.078391708433628,0.2642321014404292,0.03650460508118569,-0.02055378539323061,0.06618730830383293,0.004172987301815205,-0.002374195035243455,0.007520220008124197,0.00892212609511192
191,17635030,0.1711452603340149,-0.0730060189962387,0.38152069091796825,0.03670672763364016,-0.020640005501665167,0.06663788423980706,0.004216337947150534,-0.002398570881740921,0.007598919349411409,0.009015221752024523
192,17636236,0.1406263560056686,-0.2746701836585998,0.2037929916381831,0.036876323018983,-0.02097125774315744,0.0668836585877227,0.004260810792711427,-0.0024238622185791692,0.007679581041668202,0.009110739906368273
193,17637433,0.1753341257572174,0.0394950620830059,0.20858043670654425,0.03708619796751439,-0.02092398215384408,0.06713332937046043,0.004305202971678542,-0.0024489082252173206,0.007759939636924644,0.009205899591653223
194,17638625,0.1579802483320236,-0.1831134557723999,0.4138349914550776,0.03727451042352616,-0.021142253393124782,0.06762662068027489,0.004349634188103385,-0.0024741097912619253,0.007840550568775532,0.009301331627840298
195,17639812,0.1358390748500824,-0.1591770648956298,0.29594844818115185,0.03743575140537321,-0.021331196569155896,0.06797791148826592,0.004394070425021563,-0.0024994299215895135,0.007921240349712104,0.009396864025348737
196,17640998,0.1980737149715423,-0.0730060189962387,0.24867385864257763,0.03767066683132946,-0.021417781707685435,0.06827283868461602,0.004438747835883519,-0.0025248314106948284,0.008002211936392058,0.009492768399046055
197,17642201,0.109509028494358,-0.1166899502277374,0.3994726562499995,0.037802406192608176,-0.021558159717809403,0.06875340429008477,0.004484224130533227,-0.002550765876835353,0.00808492228175303,0.009590653831375145
198,17643388,0.1693500280380249,-0.1047217547893524,0.24747699737548778,0.03800342467588931,-0.021682464440744363,0.06904715948596947,0.004529334195623507,-0.0025765029621265165,0.008166881260062877,0.009687682142053245
199,17644594,0.1083122119307518,0.0652266889810562,0.20319503784179638,0.0381340492034778,-0.02160380105383321,0.06929221270160668,0.004575323858962902,-0.0026025571461974393,0.008250447668581014,0.009786561134822203
200,17645832,0.0789901241660118,-0.1705468446016311,0.2528623962402339,0.03823183897719532,-0.02181493804745003,0.0696052563481521,0.00462265487561667,-0.0026295640395001822,0.008336618975940027,0.009888516627224652
201,17647070,0.1717436760663986,-0.0448807515203952,0.3312544250488276,0.03844445764816552,-0.021870500417832277,0.07001534932636254,0.0046702491141850985,-0.0026566397190174586,0.008423297978406064,0.009991041498173628
202,17648278,0.1304533779621124,-0.1705468446016311,0.2420915985107417,0.038602045328743756,-0.022076521006111047,0.07030779597736352,0.004716880384942221,-0.0026833081563928407,0.008508229795946719,0.0100915349421509
203,17649500,0.3183541297912597,-0.0011968200560659,0.35997814178466747,0.03899107407534867,-0.02207798352021956,0.07074768926662438,0.004764527477462297,-0.002710287452254549,0.008594683472230535,0.010193868948793408
204,17650548,0.040093470364809,-0.1699484437704086,0.18823474884033153,0.039033092032290995,-0.022256089489290948,0.07094495928340905,0.004805434157912138,-0.002733611834039326,0.008669033789559548,0.010281876188213596
205,17651829,0.2944177091121673,-0.0341093689203262,0.308515014648437,0.03941024111766368,-0.022299783590877885,0.07134016701717369,0.004855918676783865,-0.0027621778568192403,0.008760420543508547,0.010390117458785895
206,17653023,0.0987376496195793,-0.2022625803947448,0.24448532104492138,0.03952813387130946,-0.02254128511186921,0.07163208249050132,0.0049031152686262085,-0.002789092151242812,0.008845949250002205,0.01049144377572383
207,17654214,0.2722765505313873,-0.1256660968065261,0.4269995117187495,0.039852415242992344,-0.02269095343316578,0.07214063890895835,0.004950579495180613,-0.0028161170767817124,0.008931868750942774,0.010593254085138917
208,17655409,0.0137634305283427,-0.1148947179317474,0.21935218811035107,0.03986886254247371,-0.022828252621094218,0.07240276477375021,0.004998222785918869,-0.00284339683866392,0.009018390054847406,0.010695723247222375
209,17656592,0.2908272743225097,0.0017952299676835,0.17566818237304815,0.04021291120799724,-0.02282612886404245,0.07261058023349752,0.00504579465987793,-0.0028704001491100823,0.009104288371263633,0.010797560257428064
210,17657796,0.1208788231015205,-0.2022625803947448,0.3420261764526362,0.04035844931101147,-0.023069653010837722,0.07302237974994649,0.005094386232848388,-0.002898176011335131,0.009192207316482568,0.010901782910666917
211,17658978,0.1837118715047836,-0.024534810334444,0.35698646545410107,0.040575596743130125,-0.023098653156653035,0.07344433775211325,0.005142346588198768,-0.002925478619366295,0.009279018523705567,0.011004650759965073
212,17660178,0.1053201630711555,-0.0161570701748132,0.1816515350341792,0.04070198093881551,-0.02311804164086281,0.07366231959415426,0.005191188965325347,-0.00295322026933533,0.009367413307218552,0.011109382741682092
213,17661356,0.2776622474193573,-0.1699484437704086,0.37254470825195085,0.041029067066275515,-0.02331824090762435,0.07410117726047506,0.005239521206329419,-0.0029806891571245117,0.009454704494031392,0.011212873288877954
214,17662510,0.1651611626148224,-0.1005328819155693,0.4437555694580073,0.04121966304793302,-0.02343425585335492,0.0746132711876296,0.005287088697486734,-0.003007732288379283,0.009540808208981916,0.011314892031929778
215,17663681,0.1256660968065261,-0.0281252712011337,0.13557476043701122,0.04136681804729347,-0.023467190545931448,0.07477202923210134,0.005335529241420114,-0.003035212368508569,0.009628366255212708,0.011418661180388675
216,17664872,0.2728749513626098,-0.2309862673282623,0.5598472976684548,0.04169181211436634,-0.02374229519031941,0.07543880736362447,0.005385184189648324,-0.0030634894420802396,0.009718213874782784,0.01152514022622701
217,17666062,-0.0215427596122026,-0.1466104537248611,0.14215702056884716,0.041666176230427815,-0.023916761630251995,0.0756079742181014,0.005434766939362534,-0.0030919503884202395,0.009808187364102324,0.011631740551567361
218,17667275,0.2998034060001373,0.1280597448348999,0.2612404251098628,0.04202983776190598,-0.02376142515976726,0.07592485885375967,0.005485749132567726,-0.003120772997139037,0.009900284217891934,0.011740881365561099
219,17668464,0.0227395799010992,-0.3111732006072998,0.4521335983276362,0.04205687512240839,-0.02413141009528934,0.07646244570217123,0.005535754757088269,-0.003149465243742336,0.009991198065831815,0.01184853370011867
220,17669658,0.1735389083623886,0.1334454268217086,0.18045467376708935,0.04226408057899308,-0.02397207625566422,0.07667790858264913,0.005586218069299587,-0.003178087902791599,0.010082751488679499,0.01195692069966629
221,17670802,0.0873678624629974,-0.1896959692239761,0.3521990203857417,0.04236402941365075,-0.02418908844445645,0.07708082426197041,0.005634682518948803,-0.003205760219972057,0.010170931951635194,0.012061276982231035
222,17671989,0.2214117050170898,-0.1968768984079361,0.4647001647949214,0.042626845107506035,-0.02442278132286667,0.07763242335758198,0.005685280584091413,-0.0032347500614022997,0.010263081638160643,0.012170327357599675
223,17673018,0.1448152214288711,0.010172969661653,0.0661587142944331,0.04277585997035634,-0.024412313337084827,0.07770050067459096,0.00572929694400091,-0.00325987033182616,0.010343035453354797,0.012264990030253298
224,17673972,0.3147636651992798,-0.2076482772827148,0.4964155578613276,0.04307614450695646,-0.024610409793612537,0.07817408111679067,0.005770391585860546,-0.0032833486627692663,0.010417613526740215,0.012353318140807337
225,17675236,0.0233379900455474,-0.0598409995436668,0.22174495697021612,0.04310564372637403,-0.024686048817035733,0.07845436674240101,0.005824877119530683,-0.0033145518284739993,0.01051677984630261,0.012470689861305555
226,17676439,0.2261989861726761,-0.0347077809274196,0.3803238296508802,0.04337776110673976,-0.02472780227749142,0.07891189630947103,0.0058770605661420915,-0.0033442993746138215,0.010611710857562904,0.012583027717114162
227,17677625,0.1178867742419242,-0.2034593969583511,0.30492443084716747,0.04351757482099068,-0.02496910512228402,0.07927353668445576,0.005928672409879787,-0.0033739127332888504,0.010705729272070669,0.012694293321110443
228,17678812,0.1980737149715423,0.0329125486314296,0.16250270843505987,0.043752688320661905,-0.024930037927058515,0.07946642739936818,0.005980606850916412,-0.003403504688308269,0.01080005592139372,0.012805963859616201
229,17679997,0.1795230060815811,0.0191491208970546,0.29056209564208935,0.04396542308286858,-0.024907346218795506,0.07981074348270406,0.006032705877269611,-0.0034330198935775416,0.010894631652420723,0.012917900937585408
230,17681202,0.1430199891328811,-0.2273958027362823,0.44255870819091747,0.0441377621697737,-0.025181358161092727,0.08034402672607412,0.006085891880684188,-0.0034633634301616586,0.010991446204625643,0.013032453947815749
231,17682386,0.1466104537248611,0.111304260790348,0.09308761596679638,0.044311348946983936,-0.025049573916316955,0.0804542424633788,0.006138356517837417,-0.003493022125678578,0.011086704027702284,0.013145175179830326
232,17683574,0.1280597448348999,-0.1711452603340149,0.4652981185913081,0.044463483923847795,-0.025252894485593765,0.08100701662826527,0.006191179136738948,-0.0035230225643274635,0.011182940363456663,0.013258979684145395
233,17684753,0.1998689472675323,-0.0371014215052127,0.204391899108888,0.04469912941267622,-0.02529663706154841,0.08124799467731465,0.006243879410316493,-0.003552847299423029,0.011278731749181217,0.013372305107706007
234,17685941,0.2034593969583511,0.0281252712011337,0.2289261245727534,0.04494083917626274,-0.025263224239361462,0.08151995891330709,0.006297269127257894,-0.0035828600098193903,0.011375577460370226,0.013486891668133228
235,17687135,0.1472088545560836,-0.2303878515958786,0.4353775405883802,0.0451166065486027,-0.02553830733416694,0.08203979969676961,0.006351138355476926,-0.0036133527487763857,0.011473532981208168,0.013602765732319718
236,17688334,0.1220756396651268,0.0496680289506912,0.1457476043701149,0.045262975240561186,-0.02547875536745506,0.08221455107440938,0.006405408662790359,-0.0036439017764619643,0.011572108227946385,0.013719364749621495
237,17689522,0.2674892842769623,-0.0891630873084068,0.4407629394531227,0.045580752510282214,-0.02558468111517745,0.08273817744647968,0.006459558596772574,-0.0036742963776267954,0.011670401182752803,0.013835628460687208
238,17690682,0.1579802483320236,-0.1687516272068023,0.24149269104004034,0.04576400959834736,-0.02578043300273734,0.08301830896808612,0.006512644847906657,-0.0037042016799099706,0.011766702421155783,0.013949585616370342
239,17691865,0.2477417439222335,0.020345939323306,0.16010898590088019,0.04605708808140736,-0.02575636375651787,0.08320771789840686,0.006567130383106962,-0.0037346714582339314,0.011865137151429598,0.014066145598276332
240,17693063,0.113099493086338,-0.2285926192998886,0.424606742858888,0.046192581274124796,-0.026030217714439138,0.08371639677635181,0.006622469095473363,-0.0037658556590558297,0.011965429394767668,0.014184860463413546
241,17694250,0.1591770648956298,-0.0676203295588493,0.314499320983888,0.046381524450155906,-0.026110483045625493,0.0840897074703597,0.006677523964995698,-0.0037968488024309873,0.012065243877534985,0.014302989091655246
242,17695446,0.1286581456661224,-0.0993360579013824,0.30193275451660107,0.04653539959237259,-0.026229288970875547,0.08445081904476155,0.006733180302908176,-0.0038282190320401547,0.012166247057112521,0.01442250135737363
243,17696609,0.2483401596546173,-0.0730060189962387,0.3904966735839839,0.04682421919805091,-0.026314194970968173,0.08490496667613973,0.006787636869835509,-0.003858822440791391,0.012264991533356872,0.014539344628270607
244,17697763,0.064628280699253,-0.1507993191480636,0.37553638458251903,0.04689880023397785,-0.02648821738526504,0.08533833566394795,0.0068417580853055195,-0.0038893898436539866,0.012363471972713067,0.01465579906637041
245,17698937,0.1974752992391586,-0.055652130395174,0.3025307083129878,0.04713063623528462,-0.026553552986348976,0.0856935067155074,0.006897089452245744,-0.0039205637148599605,0.012464076149597074,0.01477477096328436
246,17700117,0.1765309572219848,-0.1950816661119461,0.4491409683227534,0.04733894276480657,-0.026783749352361073,0.08622349305812825,0.006952949404708216,-0.003952168539095746,0.012565819871405665,0.014895065311252047
247,17701294,0.1579802483320236,-0.0388966500759124,0.16429752349853466,0.04752488551709336,-0.02682953070950042,0.08641687124328602,0.007008886194961835,-0.003983746896740828,0.012667532528859013,0.015015362313341626
248,17702468,0.2740717828273773,-0.0652266889810562,0.27141326904296825,0.047846645790132696,-0.02690610684236418,0.08673551042114247,0.00706505815711945,-0.0040153346661737635,0.012769360018093433,0.015135868475794179
249,17703660,0.1166899502277374,-0.1490040868520736,0.288767280578611,0.04798574021080416,-0.02708371971389185,0.08707972101959217,0.0071222571594507286,-0.004047618460072722,0.012873159045548787,0.015258701978073469
250,17704819,0.1801214069128036,-0.0376998297870159,0.2815861129760737,0.0481945009214161,-0.027127413816615,0.08740607932453144,0.00717811458601865,-0.004079059132686179,0.01297446269148592,0.015378580381515202
251,17706026,0.1998689472675323,-0.1352406591176986,0.28218502044677507,0.048435742740768006,-0.027290649292170063,0.0877466766442107,0.007236576527506757,-0.004111998946381828,0.013080372930195481,0.015503958564395666
252,17707204,0.1400279402732849,-0.0795885324478149,0.13916439056396435,0.048600695654409935,-0.027384404583393588,0.08791061229629504,0.007293828146987652,-0.004144257774981066,0.013183931631480517,0.015626607271152393
253,17708369,0.1400279402732849,-0.0688171535730362,0.3139004135131831,0.04876382820482831,-0.027464576567306175,0.0882763062780379,0.007350638006846277,-0.004176254006681977,0.01328677352829443,0.01574837539012218
254,17709517,0.1202804148197174,-0.1268629282712936,0.29894012451172003,0.04890191012104134,-0.02761021520896162,0.08861948954097736,0.007406777399665232,-0.004207950533741865,0.013388508702287473,0.015868817360277277
255,17710712,0.1579802483320236,-0.0658250972628593,0.11762184143066357,0.04909069651779811,-0.027688876200190737,0.088760047641487,0.007465440782004001,-0.004241038740801093,0.01349457695921905,0.015994462259759465
256,17711873,0.1573818325996399,-0.1364374756813049,0.39229244232177507,0.049273416825446295,-0.02784728010945673,0.08921549916702258,0.007522647218938344,-0.004273369433008173,0.013598156153751964,0.016117126241157007
257,17713068,0.1280597448348999,-0.0795885324478149,0.25465816497802685,0.049426448220524,-0.02794238840573187,0.08951981567417132,0.007581711824561871,-0.004306760587153022,0.0137051323334826,0.016243804764402524
258,17714250,0.2214117050170898,-0.0700139701366424,0.2750038528442378,0.0496881568558542,-0.028025144918433383,0.0898448702282332,0.0076404432259654905,-0.0043398863084466105,0.01381132897009237,0.01636959968293535
259,17715456,0.1328470259904861,-0.1304533779621124,0.20977729797363232,0.04984837036919872,-0.02818247169225569,0.0900978616495894,0.007700560360630744,-0.004373874369307471,0.013919986991241775,0.016498346726340266
260,17716622,0.1424215883016586,-0.1340438425540924,0.33963245391845476,0.050014433941158454,-0.028338766812673763,0.09049387309085831,0.007758877190606135,-0.004406917371411048,0.014025502847265716,0.016623351830963914
261,17717825,0.1879007369279861,0.0299204997718334,0.23191875457763622,0.05024047852768282,-0.028302772451448247,0.0907728713526152,0.007819316486274937,-0.004440965606670141,0.014134702611502913,0.01675272227871594
262,17718990,0.1849086880683899,-0.1591770648956298,0.34262413024902294,0.050455897149282496,-0.028488213732051657,0.09117202846435532,0.007878097606453851,-0.004474154375667981,0.014240918024663887,0.016878572968687833
263,17720162,0.1843102872371673,-0.0777933001518249,0.2720121765136714,0.050671908805924454,-0.028579387479829597,0.09149082673522935,0.007937485083574395,-0.0045076494177943415,0.014348145273597577,0.017005641579133913
264,17721344,0.1460120379924774,-0.1364374756813049,0.2923578643798841,0.050844495034831565,-0.0287406565760849,0.09183639373092636,0.007997583276705566,-0.004541620873867274,0.014456695890987532,0.017134284768098237
265,17722533,0.2100419104099273,-0.1867039203643798,0.5418943786621089,0.05109423486630897,-0.028962647537398144,0.09248070614715562,0.008058334321961607,-0.00457605746178924,0.0145666554505965,0.017264544736380803
266,17723704,0.1484056860208511,-0.0185507107526063,0.13796752929687628,0.051268017924639385,-0.028984370419689445,0.09264226612396226,0.00811836917095136,-0.004609998159550696,0.01467513954422766,0.017393094079819975
267,17724873,0.2136323750019073,-0.0634314641356468,0.32048267364501903,0.051517754171016616,-0.029058521801264017,0.09301691036945328,0.008178593425577278,-0.0046439675715363735,0.01478387631244955,0.017521952632289138
268,17726053,0.0999344736337661,-0.1502009183168411,0.3821195983886714,0.05163567684990446,-0.02923575888487789,0.09346781149555192,0.008239523524260165,-0.004678465767020529,0.014894168330014302,0.017652593013005785
269,17727253,0.1352406591176986,-0.0544553101062774,0.18284839630126903,0.0517979656408457,-0.029301105257005425,0.09368722957111345,0.00830168108302918,-0.0047136270933289355,0.015006593005499638,0.017785781478810533
270,17728416,0.1633659303188324,-0.1531929671764373,0.19780868530273388,0.0519879602178065,-0.02947926867783162,0.09391728107212052,0.00836214308076249,-0.0047479114828012535,0.015115818803386513,0.017915247094262284
271,17729600,0.1262645125389099,-0.1615706980228424,0.4108433151245112,0.05213745740065257,-0.029670568384290667,0.09440371955722794,0.008423873830324863,-0.004783041435768254,0.015227592807342271,0.018047679030604745
272,17730774,0.1142963096499443,0.0472743920981884,0.18284839630126903,0.05227164126818161,-0.029615068247967394,0.09461838357448563,0.008485240737173707,-0.004817809525891368,0.015338674789658717,0.01817926135183918
273,17731962,0.1633659303188324,-0.0616362318396568,0.24927181243896435,0.052465719993400384,-0.029688292091392905,0.09491451848766312,0.008547570012525867,-0.004853079216895943,0.015451433237622061,0.018312840306768108
274,17733140,0.1178867742419242,-0.1998689472675323,0.3115066909790034,0.05260459061345737,-0.02992373771127406,0.09528147336963638,0.008609538220268519,-0.004888329379919823,0.015563674813251493,0.01844580944782556
275,17734311,0.1136979013681411,0.0197475310415029,0.16489643096923778,0.05273773085595946,-0.02990061335242446,0.09547456709030136,0.008671294103100847,-0.004923342998155512,0.015675475531314237,0.018578244826484274
276,17735472,0.2256005704402923,-0.1304533779621124,0.3851112747192378,0.05299965311824064,-0.030052069724238472,0.0959216812802504,0.008732826700371125,-0.004958233451105353,0.015786840603280606,0.018710175770627172
277,17736655,0.1795230060815811,-0.1472088545560836,0.20259613037109325,0.05321202883443515,-0.03022621779917832,0.09616135250247941,0.008795776530482262,-0.004993991066761781,0.01590059948329104,0.01884501778924908
278,17737842,0.1950816661119461,-0.0586441792547702,0.22713130950927507,0.05344359077211003,-0.030295828439953734,0.09643095736686692,0.008859214072728756,-0.005029952215120006,0.01601506302968551,0.01898073594773463
279,17739032,0.1454136371612548,-0.2543242573738098,0.34561580657958935,0.05361663300033192,-0.030598474306228567,0.09684224017669664,0.008923017865999151,-0.005066364399544418,0.016130305295495778,0.019117401627622155
280,17740217,0.2621035873889923,-0.0945487841963768,0.21276897430419872,0.05392722575138788,-0.030710514615501273,0.09709437141124712,0.008986921628514546,-0.005102756359363787,0.016245362125618105,0.019253952150469194
281,17741384,0.1184851825237274,-0.1561850160360336,0.2570518875122083,0.05406549795939307,-0.030892782529215325,0.09739435096397386,0.009050016064633157,-0.005138808236575382,0.01635902133319306,0.019388855557826996
282,17742571,0.1394295245409011,-0.1160915419459343,0.33783668518066357,0.05423100080502312,-0.031030583189505148,0.09779536310928331,0.00911438826258872,-0.005175641538821324,0.01647510442920378,0.01952660760840853
283,17743769,0.1454136371612548,-0.0885646790266037,0.233713569641111,0.054405206342342305,-0.03113668367497902,0.09807535196571336,0.009179565699786845,-0.005212943285863949,0.016592598700858704,0.019666050335186147
284,17744937,0.2567178905010223,-0.0484712123870849,0.29894012451172003,0.054705052838447496,-0.031193298051047133,0.09842451403114305,0.009243461201502151,-0.005249377057987572,0.01670755853324708,0.019802526268698124
285,17746098,0.1777277737855911,-0.1735389083623886,0.3384355926513667,0.054911394783812566,-0.031394776723655864,0.09881743775421128,0.009307213330846158,-0.0052858263937637364,0.01682228557847972,0.019938743007893365
286,17747277,0.0227395799010992,-0.0382982417941093,0.26243728637695085,0.05493820474851596,-0.031439930350731116,0.0991268513148497,0.009371985474244659,-0.005322894071647249,0.016939156136179925,0.02007740828974976
287,17748553,0.1717436760663986,-0.0753996595740318,0.2373041534423841,0.05515734967917669,-0.03153614031634758,0.09942965141464219,0.009442366252435289,-0.005363134186690909,0.01706602837138501,0.020227971057980573
288,17749735,0.1496025025844574,-0.1627675145864486,0.294751586914062,0.05533417983723152,-0.03172853151858876,0.09977804779037461,0.009507771253002896,-0.005400637310945881,0.01718396602387323,0.02036794751253642
289,17750916,0.1220756396651268,-0.024534810334444,0.259445610046388,0.055478351167676035,-0.031757507129593736,0.10008445305583939,0.009573291185731922,-0.005438142926865931,0.017302165762932177,0.020508199401893305
290,17751979,0.1226740479469299,-0.1226740479469299,0.24927181243896435,0.05560875368064362,-0.03188790964256132,0.100349428992462,0.009632403290894447,-0.005472039774815974,0.017408837205951166,0.020634777084303862
291,17752949,0.1519961357116699,-0.0843758136034011,0.3492063903808589,0.05575618993228394,-0.03196975418175662,0.10068815919113144,0.009686486795128763,-0.005503050436372278,0.017506504720366564,0.02075064572637868
292,17754095,0.1352406591176986,-0.0185507107526063,0.3115066909790034,0.05591117572763282,-0.031991013296279104,0.10104514585899338,0.00975056100251263,-0.005539712137609815,0.017622302457520972,0.020887972480249282
293,17755311,0.1352406591176986,-0.0825805813074112,0.29654640197754034,0.056075628369119945,-0.03209143128314892,0.10140574628379807,0.00981874896660948,-0.005578735318050124,0.01774561184500207,0.021034183102075353
294,17756496,0.1837118715047836,-0.095745600759983,0.23311561584472784,0.056293326936853114,-0.0322048898200495,0.10168198828857408,0.009885456559029651,-0.005616898112486883,0.01786610500112403,0.021177098566557938
295,17757674,0.2154276072978973,-0.0813837572932243,0.26243728637695085,0.056547100658250034,-0.032300759886140916,0.10199113941192613,0.00995206904360507,-0.005654948407632757,0.01798625056335128,0.021319646551228866
296,17758880,0.1573818325996399,-0.1119026690721511,0.3079161071777339,0.0567369031483652,-0.03243571450504193,0.10236248623718247,0.010020493748801998,-0.005694065879325838,0.018109699721753324,0.021466110621627642
297,17760053,0.1908927857875824,-0.1513977348804474,0.21336788177490185,0.056960820386094034,-0.03261330404805669,0.10261276676250443,0.010087308791114887,-0.005732321284974209,0.01823006449716574,0.02160899251543891
298,17761234,0.1507993191480636,-0.1053201630711555,0.3450178527832026,0.057138914382007897,-0.03273768716064373,0.10302023284664139,0.010154789849000038,-0.005770984493510929,0.018351731392157622,0.021753392011169232
299,17762401,0.1490040868520736,-0.093950368463993,0.35638755798339794,0.057312802151364264,-0.03284732724064121,0.103436137126808,0.01022167388911068,-0.005809317324400758,0.018472441364184605,0.021896617885512552
300,17763605,0.1316501945257187,-0.0927535519003868,0.314499320983888,0.05747130898557323,-0.03295900251712928,0.10381479430927261,0.01029086934512931,-0.005848999963431381,0.01859743437653297,0.02204489414445424
301,17764803,0.1723420768976211,-0.0759980678558349,0.19062847137451122,0.05767777479369658,-0.033050048202420565,0.10404316721797928,0.010359967319332159,-0.0058885939211778815,0.01872207809086011,0.02219280670096569
302,17766011,0.1609722971916198,-0.1376343071460724,0.3444189453124995,0.05787222932870406,-0.03321631044545302,0.10445922530391678,0.010429876972361234,-0.005928719224195989,0.018848264835027242,0.022342540871379574
303,17767260,0.1268629282712936,-0.0945487841963768,0.26064247131347607,0.058030681126114904,-0.0333344018769143,0.10478476775058732,0.010502357293087752,-0.005970353892140255,0.018979141009947725,0.02249783162405985
304,17768439,0.2291910350322723,-0.1304533779621124,0.3121055984497083,0.058300897356417955,-0.03348820640953163,0.10515274025115952,0.010571094051070968,-0.006009836487497093,0.01910311609070384,0.022644981969918796
305,17769634,0.1142963096499443,-0.0987376496195793,0.3079161071777339,0.05843748144644964,-0.03360619790082703,0.10552069999923691,0.010640926841399476,-0.006049995893988582,0.01922921332720293,0.02279461382748945
306,17770850,0.1825150549411773,-0.1172883585095405,0.3354429626464839,0.05865941975325811,-0.03374882054477463,0.10592859864181503,0.010712256695819438,-0.006091034459771028,0.019358022503151377,0.022947465645246353
307,17772038,0.1585786491632461,-0.1507993191480636,0.24628013610839794,0.05884781118846405,-0.033927970135922525,0.10622117944351181,0.010782167895511334,-0.006131340888292504,0.01948421326433027,0.023097252047491416
308,17773254,0.1723420768976211,-0.0879662707448005,0.28457874298095476,0.05905737915397156,-0.034034937121148204,0.10656722719497665,0.010853981668562563,-0.00617272737183182,0.01961379901259936,0.023251077243325688
309,17774390,0.0969424247741699,-0.064628280699253,0.2618383789062495,0.059167505748515016,-0.034108354848022555,0.10686467559341414,0.010921195955092876,-0.006211474462939174,0.01973519728407348,0.023395147957099644
310,17775467,0.2447496950626373,-0.0442823395133018,0.32945960998535107,0.05943110117009748,-0.03415604692767838,0.10721950359336836,0.010985203251053071,-0.006248260525480284,0.019850672689443537,0.023532204662645648
311,17776442,0.1567834168672561,-0.0921551436185836,0.3246721649169917,0.05958396500154305,-0.0342458981927065,0.10753605895416243,0.011043297616929576,-0.006281650276218172,0.019955520346923845,0.023656634265365937
312,17777703,0.0987376496195793,-0.0825805813074112,0.29774326324462663,0.05970847317771334,-0.03435003230573515,0.10791151320911391,0.011118590001606673,-0.006324965666955704,0.020091596765080537,0.023818070763237543
313,17778862,0.2130339592695236,-0.1023281142115593,0.24867385864257763,0.05995537953650672,-0.034468630590106346,0.10819972621128066,0.011188078286489484,-0.006364914809809638,0.020217000247759413,0.023966900827988913
314,17780073,0.1424215883016586,-0.1507993191480636,0.3468126678466792,0.06012785207994002,-0.03465124856559465,0.10861971635204298,0.011260893115358292,-0.006406877471822573,0.020348538724261737,0.024122993614127806
315,17781262,0.1831134557723999,-0.1035249307751655,0.27081531524658153,0.06034557397885341,-0.03477433970828632,0.10894171576187117,0.011332644002819149,-0.006448224161735725,0.0204780704243026,0.024276733372456068
316,17782460,0.1825150549411773,-0.1274613291025161,0.2648310089111323,0.060564227014672935,-0.03492703838055113,0.1092589833105467,0.011405199946782726,-0.006490066753715626,0.020608962686308636,0.024432128341580053
317,17783631,0.1741373091936111,-0.0879662707448005,0.34322303771972784,0.06076814180373866,-0.03503004688359329,0.1096608974877165,0.011476359440834905,-0.006531086938616313,0.020737375597266752,0.024584561604330465
318,17784821,0.1813182383775711,-0.081982173025608,0.2767986679077161,0.060983910507407965,-0.035127605669493765,0.10999028790252668,0.01154893029433872,-0.0065728887893630105,0.02086826403987076,0.024739949515279767
319,17786031,0.2022625803947448,-0.0849742218852043,0.2145647430419917,0.06122864822968561,-0.035230424477974864,0.11024991124160749,0.011623016958696641,-0.00661551760298136,0.021001666432473105,0.024898385275322045
320,17787233,0.2004673480987548,-0.0837773978710174,0.24029582977294872,0.06146960998210031,-0.035331124910215825,0.11053874682899457,0.011696903429895126,-0.006657985615123439,0.021134534006161557,0.02505623375443888
321,17788416,0.1873023360967636,-0.0508648492395877,0.2420915985107417,0.061691188645702784,-0.035391298026866254,0.11082514119003278,0.011769884106062993,-0.006699853520689222,0.021265640148189366,0.02521201419920926
322,17789615,0.1849086880683899,-0.081982173025608,0.27979129791259716,0.06191289416269678,-0.03548959465232396,0.11116061095622999,0.011844117666164066,-0.006742405544677359,0.021398921720725887,0.025370396264713522
323,17790816,0.1418231725692749,-0.111304260790348,0.26363414764404425,0.06208322379295248,-0.03562327106953317,0.11147723556755049,0.011918679617939403,-0.006785189093231868,0.021532805880642516,0.025529501443612834
324,17792036,0.2190180569887161,-0.1035249307751655,0.20259613037109325,0.06235042582247872,-0.035749571485078874,0.11172440284660322,0.011994747137442826,-0.006828803570443664,0.02166910965211537,0.02569157118998946
325,17793221,0.1346422582864761,-0.1053201630711555,0.3001369857788081,0.06250997689854819,-0.035874375878318196,0.11208006517475111,0.012068821460067606,-0.0068713147058594715,0.02180192452934745,0.025849474470582785
326,17794432,0.1125010848045349,-0.1549881845712661,0.2917589569091792,0.06264621571224648,-0.036062066569833996,0.11243338527156813,0.012144686027295137,-0.006914985868475541,0.02193808135891132,0.02601134064159336
327,17795630,0.1956800669431686,-0.1190835908055305,0.20618671417236278,0.06288064043244439,-0.03620472871161902,0.11268039695514662,0.012220017034533206,-0.0069583591334720606,0.022073072474463586,0.02617189535776073
328,17796818,0.1136979013681411,-0.0879662707448005,0.32347530364990185,0.06301571353926974,-0.036309232641263844,0.1130646856158827,0.012294879702217858,-0.007001494501849882,0.022207393320975256,0.026331602880643994
329,17798015,0.1448152214288711,-0.0903599113225936,0.27141326904296825,0.0631890573593201,-0.03641739345511699,0.11338956729892714,0.012370517003876964,-0.007045086121815657,0.022343120633032072,0.026492979617801244
330,17799230,0.1884991526603698,-0.1196819990873336,0.2241386795043958,0.06341808382980245,-0.0365628070840081,0.11366189579452499,0.012447569975730174,-0.0070895099324227275,0.02248121983642242,0.02665723906776868
331,17800425,0.1968768984079361,-0.1585786491632461,0.24089473724365185,0.06365335172339993,-0.03675230856975818,0.11394976500553115,0.012523635731039637,-0.007133428941163589,0.02261738980560403,0.0268192763138949
332,17801629,0.1136979013681411,-0.1262645125389099,0.35339588165283153,0.06379024399664718,-0.03690433104285503,0.11437525364704117,0.0126004391848116,-0.007177861755739186,0.022755097610995065,0.026983091637552435
333,17802834,0.1077138036489486,-0.0700139701366424,0.27440589904785107,0.06392003913004417,-0.03698869787686968,0.11470591275539382,0.012677462831963303,-0.0072224331366808146,0.022893318235865316,0.027147479148499947
334,17804037,0.1956800669431686,-0.1340438425540924,0.24149269104004034,0.0641554422505768,-0.03714995261946225,0.11499642846271499,0.012754641828990746,-0.007267124529682028,0.023031658939305963,0.027312072433491
335,17805220,0.1035249307751655,-0.1023281142115593,0.31270355224609325,0.06427791224368383,-0.03727100677857453,0.11536635676502212,0.012830682599175025,-0.007311216130701082,0.023168137339358984,0.027474404179999908
336,17806419,0.1424215883016586,-0.0724076107144355,0.3139004135131831,0.06444867572805751,-0.037357823503821136,0.11574272336082443,0.012907956561372965,-0.007356008161082163,0.023306912864668614,0.027639435340423547
337,17807607,0.2166244238615036,-0.0771948918700218,0.21516269683838019,0.06470602554360498,-0.03744953103536272,0.11599833664466842,0.012984827319718768,-0.007400498203952174,0.02344471888860248,0.027803380333247397
338,17808800,0.2202148884534835,-0.1292565613985061,0.2013992691040034,0.06496874190552998,-0.03760373411311114,0.1162386059727095,0.013062335028812065,-0.0074453594587491154,0.023583391545527924,0.027968452418119124
339,17809963,0.1519961357116699,-0.0777933001518249,0.42759841918945085,0.06514551341136265,-0.03769420772118771,0.11673590293422684,0.01313809926090948,-0.0074891978223288564,0.02371915540064043,0.028129985231621
340,17811162,0.1065169796347618,-0.0831789895892143,0.3575844192504878,0.06527322726994474,-0.03779393932970518,0.11716464665290817,0.013216361860406143,-0.007534512755585173,0.023859635811977267,0.028297055047645184
341,17812354,0.2124355584383011,-0.1555866003036499,0.26243728637695085,0.0655264504556032,-0.037979398557267126,0.1174774718982695,0.013294469389349223,-0.007579784198665435,0.023999668958480005,0.028463663765568033
342,17813550,0.1783261746168136,-0.1328470259904861,0.27739757537841747,0.06573972856044491,-0.03813828360035175,0.11780923939842208,0.013373094104707516,-0.007625397585851456,0.024140568808800517,0.02863133592216934
343,17814750,0.1220756396651268,-0.0634314641356468,0.42759841918945085,0.06588621932804306,-0.03821440135731453,0.11832235750144943,0.013452157567901166,-0.007671254867480233,0.024282555637802256,0.02880019449198984
344,17815944,0.1089106202125549,-0.1376343071460724,0.2510675811767573,0.06601625860857685,-0.038378736720046935,0.11862213219337447,0.013530980980679808,-0.0077170790791239695,0.024424190463641145,0.02896863537720047
345,17817129,0.1507993191480636,-0.0837773978710174,0.21037525177001903,0.0661949558017673,-0.03847801293652409,0.11887142686672195,0.013609422003304903,-0.0077626755244537505,0.02456505310447821,0.02913618596501312
346,17818351,0.1334454268217086,-0.109509028494358,0.280988159179687,0.06635802611334343,-0.0386118329693442,0.11921479439723952,0.01369051151121541,-0.007809859184342289,0.02471073358323164,0.029309458543948386
347,17819540,0.1430199891328811,-0.0867694541811943,0.2696184539794917,0.06652807688042243,-0.03871500185036564,0.11953537073902114,0.013769613394626231,-0.007855891321542375,0.024852861139040335,0.029478500441674032
348,17820703,0.0987376496195793,-0.1376343071460724,0.24687904357910107,0.06664290876693,-0.03887507054957652,0.11982249106670363,0.01384711909752217,-0.007901103028591532,0.02499221469615091,0.02964423943682622
349,17821884,0.1472088545560836,-0.0484712123870849,0.30193275451660107,0.06681676242416074,-0.038932315051405667,0.12017907364978773,0.013926029693945104,-0.007947082092667241,0.02513414618213131,0.02981301261410827
350,17823095,0.1555866003036499,-0.1125010848045349,0.43896812438964794,0.06700517779712846,-0.03906855386510396,0.1207106640484236,0.014007172964257427,-0.007994394111397882,0.02528032679629395,0.02998676632427037
351,17824266,0.1663579791784286,-0.1292565613985061,0.25525611877441357,0.06719998299074639,-0.03921991329850161,0.12100956896350844,0.01408586414433959,-0.008040320629870428,0.025422029001550217,0.03015522977991665
352,17825477,0.1902943849563598,-0.1148947179317474,0.27081531524658153,0.06743042949092855,-0.039359050801916956,0.12133752631027205,0.014167522394453106,-0.008087984440391549,0.025568968745911958,0.03032995789371902
353,17826676,0.1394295245409011,-0.1119026690721511,0.32108158111572394,0.06759760549085309,-0.03949322210213446,0.1217225031260298,0.014248571923436638,-0.008135336813692008,0.025714914027160068,0.030503480299037895
354,17827879,0.1334454268217086,-0.080186940729618,0.2540592575073237,0.0677581403393196,-0.03958968699183219,0.1220281364128111,0.014330084966264839,-0.008182963207143183,0.025861713875264678,0.030678012754347145
355,17829071,0.1729404926300048,-0.0969424247741699,0.2750038528442378,0.06796428540653456,-0.039705242362163,0.12235594100540143,0.014411098394469428,-0.008230291856038881,0.026007562156943116,0.030851430279938707
356,17830274,0.1675547957420349,-0.0849742218852043,0.2750038528442378,0.06816585382581222,-0.039807466351090906,0.12268677064037305,0.01449310191662188,-0.008278180238059244,0.026155154342023486,0.031026929752627046
357,17831468,0.1765309572219848,-0.109509028494358,0.3492063903808589,0.06837663178873528,-0.03993822013111317,0.1231037230704878,0.01457474361497763,-0.008325866472895793,0.02630214018736965,0.03120169518476307
358,17832662,0.1627675145864486,-0.0149602498859167,0.2528623962402339,0.0685709762011515,-0.03995608266947696,0.12340564077159863,0.014656617360561806,-0.008373574035603149,0.026449486522450938,0.03137687861921518
359,17833847,0.1292565613985061,-0.093950368463993,0.259445610046388,0.06872414522640874,-0.040067413856106786,0.1237130838195036,0.0147380554726551,-0.008421053921022636,0.02659608652677705,0.03155116870728628
360,17835054,0.1645627468824386,-0.1083122119307518,0.2971453094482417,0.06892277246189585,-0.040198146695907204,0.12407173820800764,0.014821245259016609,-0.008469573084084596,0.026745841114794115,0.03172921360816218
361,17836241,0.1244692802429199,-0.0682187378406524,0.2893652343749995,0.0690705174975442,-0.04027912233772406,0.12441521474121077,0.014903231963286193,-0.008517384402299474,0.02689352197469193,0.031904759585542834
362,17837459,0.3004018366336822,-0.0604394115507602,0.2666258239746089,0.06943640693456403,-0.04035273754099288,0.12473996499481184,0.014987805506932492,-0.008566534036624404,0.027045455252055612,0.032085455725378485
363,17838644,0.1795230060815811,-0.078391708433628,0.2283281707763667,0.06964914169677071,-0.04044563171548673,0.12501053387718183,0.015070339739843166,-0.008614462110207256,0.027193592734700074,0.032261673594890045
364,17839839,0.1813182383775711,-0.0777933001518249,0.2648310089111323,0.06986581699163191,-0.04053859470916816,0.12532700693283064,0.015153829391148167,-0.008662905730884712,0.027343358507984805,0.032439847956092616
365,17841028,0.1322486102581024,-0.0712107941508293,0.2923578643798841,0.0700230605892288,-0.0406232643434135,0.12567462043357833,0.01523708681018876,-0.00871120679218903,0.02749278563168033,0.03261759034672912
366,17842214,0.1214772313833236,-0.0963440090417862,0.2911610031127907,0.07016713258564942,-0.040737528338137055,0.1260199373832701,0.01532030502943534,-0.00875952150079806,0.027642245277416887,0.03279534550961099
367,17843457,0.1711452603340149,-0.1029265224933624,0.2803892517089839,0.0703798661442446,-0.040865466005596304,0.12636846122314438,0.015407787203052636,-0.008810317275043016,0.027799321274717254,0.03298217488760287
368,17844632,0.1077138036489486,-0.0724076107144355,0.3168920898437495,0.07050642986353212,-0.040950544948185764,0.1267408094287108,0.015490632258142286,-0.008858434165357134,0.027948241725795988,0.033159248471316245
369,17845823,0.1843102872371673,-0.0598409995436668,0.3557896041870112,0.07072594341563158,-0.04102181557864227,0.12716455484729752,0.015574866856750304,-0.008907291147711298,0.02809969471061912,0.03333930347241213
370,17847013,0.1908927857875824,-0.1005328819155693,0.259445610046388,0.0709531058307188,-0.041141449708121794,0.12747329512325273,0.01565930105268886,-0.008956249472863963,0.02825138793181579,0.03351968129551451
371,17848216,0.1591770648956298,-0.0945487841963768,0.3689541244506831,0.07114459583978824,-0.04125519189551004,0.1279171469349669,0.015744888001484127,-0.009005879468714261,0.028405272259578555,0.03370262386410101
372,17849397,0.1256660968065261,-0.109509028494358,0.32108158111572394,0.07129300750011675,-0.04138452205816187,0.12829634428226455,0.015829085043341764,-0.009054754589264951,0.02855679024217591,0.03388272100815981
373,17850680,0.1603738814592361,-0.0496680289506912,0.25764984130859325,0.07149876719002894,-0.04144824613930561,0.12862690902866347,0.01592081796164657,-0.00910793268906168,0.028721818566459684,0.03407887533650421
374,17851932,0.1603738814592361,-0.0371014215052127,0.31868785858154425,0.0716995552896159,-0.04149469711903014,0.12902590622760757,0.016010585804869172,-0.009159884049854706,0.02888335900105665,0.034270844179940786
375,17853147,0.1902943849563598,-0.0640298724174499,0.32646697998046825,0.07193076296733787,-0.041572493414017336,0.12942256360828383,0.016097981681874488,-0.009210394629352737,0.029040607415840712,0.03445770251394249
376,17854198,0.1214772313833236,-0.0969424247741699,0.280988159179687,0.07205843553752174,-0.04167437990245499,0.12971788216358168,0.016173715097624424,-0.009254194402630218,0.029176940909994637,0.03461969172257482
377,17855174,0.1089106202125549,-0.0987376496195793,0.2833818817138667,0.0721647323028492,-0.0417707478484837,0.12999446288013441,0.016244147876352005,-0.009294962652530337,0.02930381550576565,0.034770422403771234
378,17856408,0.2130339592695236,-0.080186940729618,0.25166553497314403,0.07242761620858779,-0.041869698533344046,0.13030501815029127,0.016333523554753402,-0.009346629860520483,0.029464611898163108,0.034961505055884426
379,17857618,0.1232724636793136,-0.0544553101062774,0.2779955291748042,0.07257677588963976,-0.04193558945857264,0.13064139274059278,0.016421341453579867,-0.009397371923765356,0.029622687983379227,0.03514932001574531
380,17858831,0.1801214069128036,-0.1340438425540924,0.30133384704589794,0.07279526315622499,-0.04209818463959075,0.13100691069705944,0.016509642107788366,-0.00944843702173318,0.029781599366054762,0.03533815084977014
381,17860034,0.1268629282712936,-0.0759980678558349,0.26303524017333935,0.07294787925893535,-0.042189610315221324,0.13132334209098798,0.016597398406536866,-0.009499191122942391,0.02993958134659022,0.035525860961623336
382,17861225,0.1879007369279861,-0.0514632612466812,0.3091129684448237,0.07317166903661658,-0.04225090305936612,0.13169149563640575,0.016684545864359475,-0.009549511948486097,0.03009642591789318,0.03571221222754796
383,17862414,0.1813182383775711,-0.0682187378406524,0.29056209564208935,0.0733872564220475,-0.04233201513865866,0.1320369739681242,0.01677180331224529,-0.009599844714485961,0.03025341787994128,0.03589874229419795
384,17863613,0.1867039203643798,-0.0341093689203262,0.23550838470458935,0.07361111442256439,-0.042372912271994134,0.132319348521385,0.016860063038437945,-0.009650649836300082,0.03041206877881842,0.036087265002082966
385,17864807,0.1849086880683899,-0.0831789895892143,0.3198847198486323,0.07383189539611805,-0.04247222798556365,0.13270129087688426,0.01694821832154091,-0.009701361676514845,0.03057051412012542,0.036275540743343215
386,17866025,0.1807198226451873,-0.1304533779621124,0.15592044830322394,0.07405201214009989,-0.042631120199921504,0.1328912019829176,0.01703841367232755,-0.009753286380918349,0.030732375604140615,0.0364679728799332
387,17867224,0.1250676959753036,-0.0897615030407905,0.3270658874511714,0.07420196830757428,-0.04273874424206741,0.13328335398197155,0.017127381832328332,-0.009804530135264588,0.030892182345564997,0.03665791796700025
388,17868413,0.1388311237096786,-0.0987376496195793,0.3366398239135737,0.07436703851366509,-0.04285614330746509,0.1336836187326048,0.01721580424112108,-0.009855486089657164,0.031051132168238064,0.03684680896171902
389,17869612,0.2094435095787048,-0.111304260790348,0.3318523788452161,0.07461816128164996,-0.04298959711615272,0.1340815097348402,0.017305271416497778,-0.00990703061659943,0.031211895898410138,0.0370378741291949
390,17870786,0.1226740479469299,-0.0730060189962387,0.26303524017333935,0.07476218061393965,-0.0430753061824543,0.13439031310680372,0.01739304221653854,-0.009957601026057632,0.03136967012599753,0.03722536688273653
391,17871968,0.1107058525085449,-0.0813837572932243,0.28517669677734325,0.07489303493160475,-0.043171501783574893,0.13472739196239453,0.017481565783827698,-0.010008629741165818,0.03152891790329708,0.03741457571191863
392,17873162,0.1962784826755523,-0.1442168056964874,0.3216795349121089,0.07512739143991935,-0.0433436966495765,0.1351114773270796,0.017571267889206963,-0.010060382114965412,0.03169024100722561,0.03760627764920952
393,17874368,0.0347077809274196,-0.0921551436185836,0.233713569641111,0.07516924902371783,-0.04345483575278051,0.13539333589206679,0.017661922003529566,-0.010112788646883265,0.03185352537031144,0.03780025213662427
394,17875555,0.1962784826755523,-0.0945487841963768,0.253461303710937,0.0754022315826537,-0.04356706515962161,0.13569419445957168,0.017751424452418174,-0.010164502753227736,0.03201459437913495,0.037991636442391154
395,17876780,0.1699484437704086,-0.0885646790266037,0.32586902618408153,0.07561041842627246,-0.0436755568914292,0.13609338401664717,0.017844047214990357,-0.010218005310419737,0.03218130877455535,0.0381897144265029
396,17877850,0.1316501945257187,-0.0759980678558349,0.3192858123779292,0.07575128413441498,-0.04375687482403494,0.13643501983589154,0.01792510108901418,-0.010264825166481455,0.03232729424577975,0.03836313123303458
397,17878835,0.1543897837400436,-0.1502009183168411,0.3115066909790034,0.07590335807139892,-0.04390482272857703,0.13674185392650587,0.01799986589671451,-0.010308071416869104,0.03246198497189736,0.03852313560642059
398,17880012,0.2058530449867248,-0.1202804148197174,0.23909896850585888,0.0761456471053483,-0.044046392776819834,0.13702327341243725,0.018089489323357504,-0.01035991402116742,0.0326232613647038,0.038714785606737155
399,17881190,0.1884991526603698,-0.0610378198325634,0.30133384704589794,0.07636769910718222,-0.044118295328582594,0.13737824468425733,0.018179450472905766,-0.01041188537306449,0.03278509293694186,0.03890709569477761
400,17882394,0.1932864338159561,-0.0927535519003868,0.29594844818115185,0.07660041597349664,-0.04422997060507066,0.13773456661586744,0.018271677373737857,-0.010465138257672995,0.03295092535514736,0.039104178735304855
401,17883618,0.1412247568368911,-0.0724076107144355,0.24448532104492138,0.076773275075865,-0.04431859752058513,0.13803381664882644,0.018365647862430716,-0.010519384221038191,0.03311987874672553,0.03930497212814728
402,17884819,0.2992050051689148,-0.081982173025608,0.3492063903808589,0.07713262028707286,-0.04441705811038889,0.13845321352367385,0.01845828413939549,-0.010572729107828768,0.03328616105616746,0.03950265018976965
403,17886009,0.1525945514440536,-0.0550537221133708,0.29355472564697216,0.07731420780329129,-0.0444825720397038,0.13880254364719374,0.018550288046681407,-0.010625663368556016,0.03345133608310762,0.03969898984082268
404,17887223,0.2106403261423111,-0.0963440090417862,0.2791923904418958,0.07756992515922806,-0.04459953366668053,0.1391414832091902,0.01864445793582471,-0.010679807202427366,0.03362025384372358,0.039899819073752285
405,17888415,0.1400279402732849,-0.1448152214288711,0.24388641357422003,0.07773683846403381,-0.04477215341062374,0.13943219581417068,0.018737120247273836,-0.010733175609292829,0.03378645702113407,0.04009744894456077
406,17889611,0.1579802483320236,-0.0538569018244743,0.4317869567871089,0.07792578284103892,-0.04483656626520581,0.13994861301448808,0.018830319483551718,-0.010786800142546016,0.0339538355622994,0.04029638865406583
407,17890799,0.1777277737855911,-0.0592425912618637,0.2361072921752907,0.0781369234362962,-0.044906946463624905,0.14022910847759232,0.018923146148594038,-0.010840149594944802,0.034120427743170784,0.04049441804469808
408,17891987,0.1603738814592361,-0.1172883585095405,0.2612404251098628,0.07832744760746978,-0.045046285033534236,0.14053946210262283,0.019016199156351714,-0.010893664581564641,0.0342873886241487,0.04069290819090065
409,17893178,0.1717436760663986,-0.1101074442267417,0.28517669677734325,0.07853199432566486,-0.04517742299960829,0.14087910754848465,0.01910973076159358,-0.010947470892357175,0.03445517564123895,0.04089239608030116
410,17894382,0.1669563949108123,-0.1119026690721511,0.349805297851562,0.07873300982513748,-0.045312153813171156,0.14130027312709792,0.019204525305423048,-0.011002026725548232,0.03462530117008397,0.04109464521559141
411,17895605,0.1861055195331573,-0.0849742218852043,0.30133384704589794,0.07896061687552652,-0.04541607728653676,0.14166880442203506,0.019301094139861818,-0.011057570588069667,0.03479856211789212,0.0413006298714529
412,17896819,0.0891630873084068,-0.0759980678558349,0.26303524017333935,0.07906886086351893,-0.045508338940913745,0.14198812920360548,0.01939708373695013,-0.011112817711543935,0.034970935706745296,0.04150551673203904
413,17898007,0.1430199891328811,-0.0807853490114212,0.2361072921752907,0.07923876861060879,-0.045604311935539314,0.14226862466670973,0.019491219394059532,-0.011166995634123355,0.03513995083284935,0.04170642120219574
414,17899199,0.1747357249259948,-0.1292565613985061,0.3192858123779292,0.07944705359472057,-0.04575838575672633,0.14264921335506422,0.01958592028194444,-0.011221539629945373,0.03530998869516858,0.04190854956461808
415,17900396,0.1507993191480636,-0.0418886989355087,0.2528623962402339,0.0796275603797408,-0.045808526529352134,0.14295188964336378,0.01968123447171899,-0.011276372436201007,0.03548110210707169,0.04211194809532256
416,17901596,0.1609722971916198,-0.0879662707448005,0.3366398239135737,0.07982072713637074,-0.04591408605424589,0.14335585743206006,0.019777019344282634,-0.011331469339466103,0.03565312913599016,0.04231640708664879
417,17902803,0.1466104537248611,-0.0592425912618637,0.32945960998535107,0.07999768595401666,-0.04598559186189896,0.14375351518131238,0.019873576551229132,-0.011386973948843415,0.03582663962881401,0.04252258608953728
418,17904007,0.1902943849563598,-0.093950368463993,0.28218502044677507,0.08022680039350412,-0.04609870810552961,0.1440932659459303,0.01997016961890291,-0.011442476793402472,0.03600012792101291,0.04272876267930772
419,17905200,0.0155586600303649,-0.1017296984791755,0.3551906967163081,0.08024536187492035,-0.04622007163581526,0.14451700844711285,0.020065902335619692,-0.011497617338864,0.036172536712090315,0.042933530639828535
420,17906401,0.1346422582864761,-0.0329125486314296,0.24867385864257763,0.0804070672271224,-0.04625959960672161,0.14481566575134258,0.020162471223359464,-0.011553175117991673,0.03634646032665768,0.043140077415520256
421,17907624,0.1603738814592361,-0.1023281142115593,0.3091129684448237,0.08060320448414705,-0.04638474689040235,0.1451937109117506,0.020261048942443575,-0.011609903663438635,0.03652403223510275,0.0433509503705887
422,17908825,0.1166899502277374,-0.0718092024326324,0.29894012451172003,0.08074334911437056,-0.046470989742523935,0.14555273800128918,0.020358021704729935,-0.011665715322119406,0.0366988410734423,0.04355849971981085
423,17909995,0.1478072702884674,-0.0813837572932243,0.2815861129760737,0.08091628362060807,-0.046566208738557005,0.1458821937534712,0.020452693756566047,-0.011720197786343518,0.03686952324013386,0.043761141004384906
424,17911197,0.1585786491632461,-0.1023281142115593,0.27141326904296825,0.0811068951569023,-0.0466892071318393,0.14620843250286084,0.020550184244544644,-0.011776318213315989,0.0370452657760023,0.04396980167752245
425,17912409,0.1340438425540924,-0.0933519601821899,0.43956703186035107,0.08126935629407786,-0.04680234970758011,0.1467411877454756,0.020648682704373065,-0.011833042661161575,0.03722311609554981,0.044180871063272675
426,17913635,0.1663579791784286,-0.0592425912618637,0.33963245391845476,0.08147331117655061,-0.046874981124467155,0.14715757713397962,0.020748568983875514,-0.011890511388020173,0.03740353128511607,0.04439494935850175
427,17914810,0.1543897837400436,-0.0789901241660118,0.31270355224609325,0.08165471917244517,-0.04696779452036222,0.1475250038078688,0.02084451327890314,-0.011945698546581599,0.03757687316459032,0.04460061484360814
428,17916008,0.1777277737855911,-0.066423512995243,0.30552238464355597,0.08186763704544031,-0.04704736988893052,0.14789101962467177,0.020942590708083575,-0.012002061295708537,0.037754046606100676,0.04481082030099288
429,17917223,0.1292565613985061,-0.1172883585095405,0.30193275451660107,0.08202468376753949,-0.04718987524451961,0.14825786792140944,0.021042250698861134,-0.012059396994130629,0.037934179915625185,0.0450245197221113
430,17918434,0.1825150549411773,-0.0371014215052127,0.2696184539794917,0.08224570949907326,-0.04723480506596243,0.1485843758691786,0.02114185025306451,-0.01211659834306551,0.03811411559480276,0.04523798840691492
431,17919635,0.1340438425540924,-0.0544553101062774,0.3007358932495112,0.08240669615398072,-0.04730020589340007,0.14894555967697126,0.021240820695145442,-0.012173405890343483,0.0382929992119748,0.045450171214448366
432,17920820,0.1172883585095405,-0.0341093689203262,0.3575844192504878,0.08254568285881453,-0.04734062549557065,0.1493692972137831,0.021338637329333138,-0.012229504531555734,0.03847000182917313,0.04566004013244771
433,17922000,0.1549881845712661,-0.1346422582864761,0.29355472564697216,0.08272856891660862,-0.047499503360348694,0.1497156917900465,0.021436257040654737,-0.012285553945520946,0.038646666345485386,0.04586951897808171
434,17923188,0.1681532114744186,-0.0969424247741699,0.2791923904418958,0.08292833493184024,-0.047614670960980404,0.1500473723498915,0.021534775902553763,-0.01234212017462259,0.038824922623837056,0.04608089756422905
435,17924360,0.1358390748500824,-0.1160915419459343,0.18943161010742138,0.08308753832756453,-0.04775073024814104,0.1502693861969374,0.02163215449747367,-0.012398084030473412,0.039001038344459865,0.04628977843731032
436,17925550,0.1585786491632461,-0.0394950620830059,0.2666258239746089,0.0832762469200688,-0.047797729372019815,0.15058667092746716,0.02173125323130855,-0.012454963328426116,0.03918023648286355,0.04650230541993385
437,17926746,0.1322486102581024,-0.0682187378406524,0.3037275695800776,0.08343441625793749,-0.047879318982477236,0.15094992910068494,0.021831040793153043,-0.012512226993929159,0.039360772598067965,0.04671638455592149
438,17927927,0.2256005704402923,-0.0706123784184455,0.2767986679077161,0.08370085053162747,-0.04796271220138942,0.15127682832748396,0.021929891497630895,-0.012568870957039,0.03953943053232272,0.04692827745669914
439,17929091,0.1579802483320236,-0.081982173025608,0.3228763961791987,0.08388473954068594,-0.048058139450791224,0.15165265645263654,0.022027533334456253,-0.01262481063135972,0.03971595422443359,0.04713761861014596
440,17930278,0.1406263560056686,-0.0849742218852043,0.30432552337646435,0.08405166302526466,-0.04815900385216896,0.1520138908488844,0.02212730265846724,-0.012681975368932244,0.039896394712871215,0.04735158216240334
441,17931456,0.1825150549411773,-0.081982173025608,0.3001369857788081,0.08426666575998537,-0.04825557885199312,0.15236745221813183,0.022226568790732502,-0.012738820440819892,0.040075883571584175,0.04756442315928771
442,17932661,0.1166899502277374,-0.078391708433628,0.30133384704589794,0.0844072771500098,-0.04835004086065564,0.15273055950382214,0.022328279559698263,-0.012797082240056983,0.04025992389578628,0.0477826208369667
443,17933839,0.1478072702884674,-0.1035249307751655,0.3521990203857417,0.08458139411440961,-0.048471993229108785,0.15314544994983653,0.022427916441965037,-0.012854182248080872,0.04044032923582719,0.04799647555703171
444,17935025,0.1083122119307518,-0.0448807515203952,0.27440589904785107,0.08470985239775948,-0.04852522180041197,0.15347089534610728,0.02252838232690878,-0.012911733161136162,0.04062234571770767,0.04821219591660104
445,17936178,0.1059185713529586,-0.1107058525085449,0.322278442382812,0.08483197651052944,-0.048652865648354325,0.15384248239017467,0.022626193595825423,-0.012967829915228714,0.04079972609990354,0.04842238014775009
446,17937367,0.1567834168672561,-0.0634314641356468,0.2690195465087868,0.0850183919931846,-0.04872828565921161,0.1541623466309736,0.02272728046390532,-0.013025767846877517,0.040983025130047764,0.04863957497856953
447,17938563,0.1172883585095405,-0.1178867742419242,0.23072189331054815,0.08515866886996201,-0.048869278241204954,0.15443829001537301,0.022829130231873794,-0.013084215503653998,0.04116773332490615,0.04885845013506366
448,17939748,0.1561850160360336,-0.0909583196043968,0.259445610046388,0.08534374811396471,-0.048977063849936164,0.154745733063278,0.022930262573388843,-0.013142253324316172,0.04135110701858613,0.04907575588605457
449,17940946,0.1358390748500824,-0.1023281142115593,0.32586902618408153,0.08550648332563511,-0.049099652930761614,0.15513612415664652,0.023032699340412955,-0.013201074708527225,0.041536960095325794,0.049295970082012426
450,17942137,0.1771293580532074,-0.0670219212770462,0.239697875976562,0.08571744439107648,-0.04917947603900258,0.1554216043269346,0.02313478881668273,-0.013259647464489677,0.04172206722607917,0.04951532690079432
451,17943315,0.1561850160360336,-0.1304533779621124,0.15532154083251903,0.08590143033996693,-0.04933315011824195,0.15560457310203532,0.02323598070162321,-0.013317761915328966,0.041905369413193366,0.0497326207559565
452,17944499,0.0987376496195793,-0.1119026690721511,0.24867385864257763,0.0860183357171165,-0.04946564287842338,0.15589900295066814,0.023337826411112275,-0.01337632923649702,0.04208995383268696,0.049951421792338344
453,17945667,0.1412247568368911,-0.080186940729618,0.30133384704589794,0.086183286233102,-0.04955930122519557,0.15625096088401774,0.02343848848943254,-0.013434214500328048,0.04227245495499949,0.05016773175889605
454,17946874,0.1310517936944961,-0.1029265224933624,0.2618383789062495,0.08634146574809125,-0.04968353353784506,0.15656699980735758,0.023542702638590485,-0.013494182525308226,0.04246143132376697,0.05039171518829666
455,17948050,0.1280597448348999,-0.1023281142115593,0.3162941360473628,0.0864920640080171,-0.04980387140015786,0.15693896171134927,0.02364441730586391,-0.013552751878074813,0.04264599154273952,0.0506104351677192
456,17949240,0.1448152214288711,-0.0969424247741699,0.2612404251098628,0.08666439412151745,-0.04991923288563912,0.15724983781723,0.023747547934868517,-0.013612155765208724,0.04283311884974202,0.05083220325631487
457,17950412,0.1926880180835724,-0.1202804148197174,0.2762007141113276,0.0868902244787114,-0.050060201531807826,0.15757354505416848,0.023849383277957565,-0.013670826321404003,0.04301779504454551,0.05105110444979069
458,17951603,0.1525945514440536,-0.0759980678558349,0.32886070251464794,0.08707196458948127,-0.05015071523062412,0.15796521815086342,0.02395308598778364,-0.013730555823243677,0.04320593161936319,0.05127407745294356
459,17952852,0.1448152214288711,-0.1005328819155693,0.288767280578611,0.08725283880104594,-0.05027628080013667,0.15832588848430612,0.024062064783446146,-0.013793350897963047,0.04340368065408009,0.05150843605622737
460,17954086,0.2238053381443023,-0.0550537221133708,0.30432552337646435,0.08752901458831601,-0.05034421709322457,0.15870142618015268,0.024170075587448128,-0.013855475661856086,0.043599518213986395,0.051740552260397976
461,17955275,0.1992705315351486,-0.078391708433628,0.27739757537841747,0.0877659472503113,-0.05043742483455215,0.15903125189727763,0.024274429298728747,-0.013915445759984369,0.04378860637249226,0.05196469567430485
462,17956339,0.1962784826755523,-0.1136979013681411,0.39468616485595476,0.08797478755587808,-0.050558399401607855,0.15945119797668436,0.0243680344726882,-0.01396923989694768,0.043958262447139455,0.05216578960134876
463,17957329,0.1693500280380249,-0.0622346401214599,0.30671924591064403,0.08814244408363572,-0.0506200116953281,0.1597548500301359,0.024455295492331,-0.014019353708526056,0.04411641974866929,0.0523532448608753
464,17958981,0.1238708719611167,-0.0969424247741699,0.29654640197754034,0.08834707876411549,-0.05078016058105503,0.16024474468620278,0.02460124486644932,-0.014103242533805958,0.0443811440668909,0.05266695973409209
465,17960210,0.1334454268217086,-0.0873678624629974,0.23311561584472784,0.08851108319367937,-0.05088753568402205,0.16053124377807595,0.02471002498769435,-0.01416578331516162,0.044578436965494156,0.05290077309559026
466,17961388,0.1502009183168411,-0.1077138036489486,0.3091129684448237,0.0886880198754566,-0.051014422544720515,0.16089537885490396,0.024814499475107638,-0.0142258783049193,0.04476797172178523,0.05312538272642422
467,17962572,0.2064514458179474,-0.0700139701366424,0.29295581817626903,0.08893245838730506,-0.0510973190853623,0.16124223854362466,0.024919795505838206,-0.01428637753071637,0.044958882532220884,0.0533516439254592
468,17963753,0.1837118715047836,-0.1035249307751655,0.2767986679077161,0.08914942210755221,-0.051219582028607775,0.16156913777042367,0.025025080973347224,-0.014346867857092155,0.04514969568392775,0.05357781551521799
469,17965055,0.1537913680076599,-0.0753996595740318,0.30432552337646435,0.08934965846869818,-0.051317752385373165,0.16196536960185984,0.02514141422867347,-0.01441368357069791,0.045360574595149375,0.053827750381156204
470,17966256,0.1388311237096786,-0.0987376496195793,0.3366398239135737,0.0895163946482735,-0.05143633630256628,0.16236967403038005,0.025248923418646048,-0.014475458610597293,0.04555558057365986,0.05405883791935398
471,17967436,0.1735389083623886,-0.1496025025844574,0.27440589904785107,0.08972117056014112,-0.05161286725561594,0.16269347299125653,0.025354794399907014,-0.01453636179395892,0.045747558871789544,0.0542863754177259
472,17968599,0.1621691137552261,-0.1172883585095405,0.26004356384277116,0.08990977323943844,-0.051749273616562536,0.16299590365600566,0.02545935946618448,-0.014596546199174982,0.04593712310774148,0.05451107616612282
473,17969789,0.1765309572219848,-0.0640298724174499,0.267224731445312,0.0901198450785326,-0.0518254691647393,0.16331390108642557,0.025566602081827934,-0.014658218507481021,0.04613146665003433,0.054741453461767134
474,17970966,0.1394295245409011,-0.0616362318396568,0.2953495407104487,0.09028395362891724,-0.05189801500961457,0.16366152749584176,0.02567286629524917,-0.014719302471147338,0.046324096267896936,0.05496977191228146
475,17972154,0.1747357249259948,-0.081982173025608,0.2732090377807612,0.09049153967012932,-0.051995409831168994,0.1639860998327253,0.025780370244377286,-0.014781073018026766,0.04651891175449822,0.05520069528841285
476,17973340,0.1316501945257187,-0.0730060189962387,0.26243728637695085,0.09064767680083682,-0.052081994969698536,0.16429735045436836,0.02588787838906308,-0.014842842264060829,0.0467137684121371,0.05543165497462156
477,17974522,0.2010657638311386,-0.097540833055973,0.2756018066406227,0.09088533653368523,-0.0521972882343707,0.16462311178981756,0.025995304856845897,-0.014904539458753856,0.046908352930272665,0.055662327886182826
478,17975686,0.1382327079772949,-0.1041233390569686,0.2791923904418958,0.0910462394057708,-0.05231848780103301,0.16494809173229194,0.026101282679514212,-0.014965438178554257,0.04710035250904905,0.05588993204387281
479,17976861,0.1418231725692749,-0.1101074442267417,0.336041870117187,0.0912128816335397,-0.05244786404799943,0.16534294092967963,0.02620845781543362,-0.015027064418810656,0.04729463046464143,0.056120210235684594
480,17978069,0.1675547957420349,-0.093950368463993,0.15592044830322394,0.09141528782679607,-0.05256135609310393,0.16553129283122991,0.02631888748312839,-0.015090558536971126,0.04749459226638155,0.056357298461309824
481,17979258,0.081982173025608,-0.080186940729618,0.3312544250488276,0.09151276463052352,-0.052656698365631444,0.16592515434261296,0.026427696160274083,-0.015153167351327861,0.04769187727489492,0.05659113678943684
482,17980300,0.1268629282712936,-0.1244692802429199,0.314499320983888,0.09164495580178221,-0.05278639535564457,0.16625286263507816,0.02652319020421954,-0.015208170775288443,0.04786511275776067,0.05679645320134602
483,17981281,0.1340438425540924,-0.0915567278861999,0.3133024597167964,0.09177645281132778,-0.05287621250570093,0.16656021234806034,0.026613222904427452,-0.015260042339756535,0.04802850832607412,0.056990088064501836
484,17982509,0.1460120379924774,-0.1418231725692749,0.29355472564697216,0.09195575559398254,-0.053050371361616,0.16692069755115482,0.026726144572296863,-0.015325188195788599,0.04823348694266694,0.057233010226477456
485,17983678,0.1148947179317474,-0.0987376496195793,0.2911610031127907,0.09209006751924476,-0.053165795674021285,0.16726106476379368,0.02683379786122686,-0.01538733901093153,0.04842901512737581,0.05746470582629057
486,17984878,0.1633659303188324,-0.0891630873084068,0.2720121765136714,0.09228610663562735,-0.05327279137879137,0.16758747937561008,0.026944541189189614,-0.01545126636058608,0.048630120102626545,0.05770301996635529
487,17986069,0.1292565613985061,-0.1089106202125549,0.4210161590576149,0.09244005120025298,-0.053402503927464526,0.1680889096210477,0.027054637290169114,-0.01551486874276369,0.048830313993985214,0.05794017704286882
488,17987266,0.1902943849563598,-0.1148947179317474,0.21935218811035107,0.09266783357904573,-0.053540032904828824,0.1683514741902158,0.02716556068696323,-0.01557895616215077,0.0490318307085909,0.05817896514355696
489,17988456,0.1657595783472061,-0.0748012512922287,0.2732090377807612,0.09286508747727891,-0.05362904639386658,0.1686765929451749,0.027276070141061193,-0.01564277472735947,0.049232555854195656,0.05841682086049788
490,17989654,0.1783261746168136,-0.0430855192244052,0.32945960998535107,0.09307872223446985,-0.05368066284589742,0.16907128555793735,0.02738757845029809,-0.015707084161448854,0.049435103254294066,0.05865681017570582
491,17990859,0.1879007369279861,-0.095745600759983,0.24747699737548778,0.09330514262246807,-0.0537960362948132,0.1693694953397748,0.027500011147158165,-0.015771908385184105,0.04963919349617849,0.058898669239257975
492,17992055,0.2124355584383011,-0.0460775718092918,0.28218502044677507,0.09355921555036027,-0.05385114507069711,0.16970698862422914,0.027611907968956396,-0.015836314354688658,0.04984216305457307,0.0591392216044926
493,17993255,0.1484056860208511,-0.1525945514440536,0.288767280578611,0.0937373023735853,-0.05403425853242998,0.17005350936092348,0.027724392731804697,-0.015901155464927572,0.05004622726580618,0.059381087570099814
494,17994468,0.1861055195331573,-0.0963440090417862,0.3342461013793958,0.09396304836877901,-0.05415112381539766,0.1704589498818967,0.027838369909476027,-0.01596684077811565,0.050252993972012924,0.05962615405006166
495,17995665,0.1519961357116699,-0.1340438425540924,0.29056209564208935,0.09414498774322588,-0.05431157429493491,0.17080675271038026,0.02795106145980467,-0.01603185173254669,0.05045744965500725,0.05986849198361129
496,17996856,0.2076482772827148,-0.0532584898173809,0.2762007141113276,0.0943922968414696,-0.05437500515630741,0.17113570776088685,0.02806348268534286,-0.01609661236368785,0.05066127228295047,0.06011010313869552
497,17998047,0.0215427596122026,-0.1196819990873336,0.28218502044677507,0.09441795426816774,-0.054517546417220425,0.17147179012023897,0.028175934468876247,-0.01616154276147076,0.05086549518498367,0.060352111380123676
498,17999236,0.2124355584383011,-0.0682187378406524,0.2893652343749995,0.09467054014715087,-0.054598658496512964,0.17181584538391084,0.02828849774111121,-0.01622646056642311,0.05106978422514514,0.0605942240462358
499,18000445,0.2998034060001373,-0.1083122119307518,0.2785944366455073,0.09503300246500504,-0.054729607960737246,0.17215266605781526,0.0284033926410914,-0.016292628662447642,0.05127791679840904,0.060840999444790315
500,18001640,0.1567834168672561,-0.095745600759983,0.32886070251464794,0.0952203586481614,-0.054844023953645425,0.17254565459732027,0.028517180969675954,-0.016358167271072248,0.05148410885565284,0.06108545417352922
501,18002824,0.1358390748500824,-0.0951471924781799,0.253461303710937,0.0953811921127839,-0.05495667822953959,0.17284575278091402,0.02863011230113749,-0.016423235978096022,0.05168875822694544,0.06132808277951947
502,18003993,0.1693500280380249,-0.0837773978710174,0.3168920898437495,0.09557916229556035,-0.05505461400765081,0.17321619963394136,0.028741844341861,-0.016487594821870965,0.05189124796431752,0.06156814122966715
503,18005165,0.1484056860208511,-0.0795885324478149,0.3031286621093763,0.09575309375957679,-0.05514789176767965,0.17357146642593355,0.028854066967747224,-0.016552228151022686,0.05209467372296872,0.06180929111100787
504,18006366,0.1364374756813049,-0.0640298724174499,0.27380699157714794,0.09591695516787004,-0.055224791644453014,0.1739003086228177,0.028969263230903836,-0.016618553125787673,0.05230352799362473,0.06205685748340718
505,18007526,0.1424215883016586,-0.1262645125389099,0.4407629394531227,0.09608216421029996,-0.055371258478998146,0.17441159363258332,0.029080718541387784,-0.016682783785623313,0.052505845442238526,0.06229660722162573
506,18008740,0.1747357249259948,-0.1047217547893524,0.2678226852416987,0.09629429338036011,-0.05549839068931242,0.17473673037246676,0.02919761981355154,-0.016750158831920138,0.0527179758329107,0.06254801195554185
507,18009922,0.0718092024326324,0.0029920500237494,0.3641666793823237,0.09637917185763548,-0.05549485408618435,0.17516717538749665,0.029311539994687264,-0.016815753749450008,0.05292502343421872,0.06279326442011829
508,18011122,0.2256005704402923,-0.0813837572932243,0.28577560424804815,0.09664989254216383,-0.055592514594936214,0.17551010611259432,0.02942751986573786,-0.016882464766963933,0.05313563556155383,0.06304278157399497
509,18012176,0.1914912015199661,-0.1011312901973724,0.32108158111572394,0.09685172426856588,-0.05569910697480424,0.1758485260990903,0.02952960158311693,-0.016941171625715377,0.053320979908062276,0.06326237083816529
510,18013299,0.1597754657268524,-0.0502664409577846,0.25465816497802685,0.09703115211657713,-0.055755556187999836,0.17613450721836063,0.029638567566943844,-0.0170037851153145,0.05351877895966849,0.06349671721437213
511,18014483,0.1771293580532074,-0.1053201630711555,0.2917589569091792,0.09724087327651212,-0.05588025526107608,0.1764799498233411,0.029753700760903234,-0.017069947337543617,0.05372773122025933,0.06374429318105516
512,18015680,0.1077138036489486,-0.0580457709729671,0.26602787017822394,0.09736980669947992,-0.05594973604893072,0.17679838518394442,0.02987025241952251,-0.017136919171594187,0.05393935888732451,0.06399500305082684
513,18016861,0.2046562284231186,-0.1029265224933624,0.2953495407104487,0.09761150570524763,-0.05607129227199538,0.17714719299152346,0.029985531607760407,-0.017203139367767413,0.0541485697222475,0.06424288063958469
514,18018046,0.1944832503795623,-0.0538569018244743,0.2666258239746089,0.0978419683569474,-0.05613511270065738,0.17746314459293336,0.03010147434026339,-0.017269659476317693,0.054358863548590125,0.06449206107870754
515,18019263,0.2118371427059173,-0.0927535519003868,0.22234386444091747,0.0980997741596205,-0.056247993773320154,0.17773373707595796,0.03022086176541565,-0.017338113284739824,0.05457516550661157,0.06474843124117277
516,18020462,0.1561850160360336,-0.1346422582864761,0.3557896041870112,0.0982870399938477,-0.05640942984100564,0.1781603288113782,0.030338707926368273,-0.01740574819111919,0.05478877974085641,0.06500159732057519
517,18021642,0.2022625803947448,-0.0287236794829368,0.3001369857788081,0.0985257098387135,-0.056443323782795506,0.1785144904545972,0.030454968263977956,-0.017472351313182886,0.05499942683959283,0.06525124600384971
518,18022831,0.0017952299676835,-0.1400279402732849,0.25166553497314403,0.09852784436714508,-0.05660981700378044,0.17881372077568025,0.03057211787093049,-0.01753966038560038,0.05521203635359511,0.06550315286966708
519,18024023,0.2046562284231186,-0.1382327079772949,0.30731815338134716,0.09877179459142543,-0.056774590391689375,0.17918004401451082,0.03068985385008347,-0.017607335697347275,0.05542561896606041,0.06575625169875088
520,18025213,0.1513977348804474,-0.0777933001518249,0.28457874298095476,0.09895195789593317,-0.05686716441887005,0.17951869271865817,0.03080760667997963,-0.01767500762300573,0.055639246210395614,0.06600939510920138
521,18026420,0.1908927857875824,-0.0598409995436668,0.3079161071777339,0.09918236548837878,-0.05693939250531925,0.1798903474600217,0.030927319795124104,-0.01774373346975965,0.05585637385977986,0.0662666861093811
522,18027621,0.2046562284231186,-0.0568489506840705,0.28218502044677507,0.09942815761871494,-0.05700766809509082,0.18022925166957826,0.03104673301242418,-0.017812199679141855,0.056072829191035026,0.06652320092750619
523,18028813,0.1699484437704086,-0.0843758136034011,0.2564529800415034,0.09963073616368927,-0.057108244064906076,0.18053494362178774,0.0311654928499313,-0.01788027270606722,0.056288026843832197,0.06677824542913975
524,18029984,0.1573818325996399,-0.0825805813074112,0.3282627487182612,0.09981503028966345,-0.057204945925617055,0.18091933930053683,0.03128237625040049,-0.017947259697746118,0.056499883390153126,0.06702930715463844
525,18031169,0.1382327079772949,-0.0795885324478149,0.2750038528442378,0.09997883604861654,-0.05729925833656772,0.18124521886615724,0.031400851171118106,-0.01801515931887495,0.05671465897450952,0.06728381649512809
526,18032357,0.2004673480987548,-0.1005328819155693,0.2648310089111323,0.10021699125815786,-0.05741869140028341,0.18155983810474366,0.031519908956732796,-0.018083372724258487,0.05693035206217796,0.06753945525134705
527,18033541,0.1537913680076599,-0.0652266889810562,0.26004356384277116,0.10039908023787893,-0.05749591980003698,0.1818677296843335,0.031638781467734446,-0.018151447893301732,0.05714568345412421,0.06779466565169616
528,18034717,0.1561850160360336,-0.1262645125389099,0.3091129684448237,0.1005827538167373,-0.05764440686678274,0.18223124653522463,0.03175706678622293,-0.01821923771577707,0.05735998740004964,0.06804865956315724
529,18035902,0.1310517936944961,-0.1053201630711555,0.25226444244384716,0.10073805019226528,-0.05776921126002206,0.18253017989952058,0.03187644137570076,-0.018287694231120196,0.05757628566323057,0.06830502138088652
530,18037117,0.1442168056964874,-0.1196819990873336,0.3079161071777339,0.10091327361118652,-0.05791462488891317,0.18290429796974153,0.03199905100313835,-0.018358060500360224,0.05779851438526381,0.068568403186744
531,18038329,0.1298549771308899,-0.066423512995243,0.3109087371826149,0.10107065784346915,-0.057995130186663406,0.18328111935920685,0.032121548640444635,-0.01842835059814646,0.05802065110192717,0.06883163478459754
532,18039519,0.1968768984079361,-0.0909583196043968,0.2953495407104487,0.10130494135257459,-0.058103370586992636,0.18363258531265228,0.032242101520654196,-0.01849749360914498,0.05823917387844922,0.06909060539851111
533,18040715,0.2034593969583511,-0.1274613291025161,0.32347530364990185,0.10154827879133678,-0.058255814336599245,0.18401946177581757,0.03236355326208863,-0.018567167563091555,0.0584592611547331,0.06935145640735495
534,18041899,0.2130339592695236,-0.0706123784184455,0.2091783905029292,0.1018005109991119,-0.05833941939264668,0.18426712899017303,0.03248408506711158,-0.01863624143565245,0.05867743343545746,0.06961010323270475
535,18043119,0.1424215883016586,-0.064628280699253,0.28757041931152294,0.10197426533683993,-0.05841826589509977,0.1846179649017331,0.032608493670822525,-0.01870751172004447,0.05890266735263758,0.0698770997930735
536,18044319,0.1519961357116699,-0.1460120379924774,0.30552238464355597,0.10215666069969392,-0.05859348034069074,0.18498459176330537,0.032731081663662155,-0.0187778238964533,0.059124648862753544,0.07014024864728836
537,18045511,0.1005328819155693,-0.0951471924781799,0.3192858123779292,0.10227649589493729,-0.05870689579412473,0.18536518045165987,0.03285299524676892,-0.018847802516239895,0.05934560415785192,0.07040212844251124
538,18046693,0.2010657638311386,-0.0951471924781799,0.3007358932495112,0.1025141556277857,-0.05881935977563394,0.18572065027748078,0.032974166978720965,-0.018917326999494694,0.05956512596647991,0.07066233211654567
539,18047866,0.1334454268217086,-0.0460775718092918,0.26602787017822394,0.10267068711344755,-0.05887340876736624,0.18603270096919983,0.03309459969470504,-0.018986385507978813,0.05978334232471678,0.07092096575149433
540,18049080,0.2621035873889923,-0.0652266889810562,0.29056209564208935,0.10298888086853779,-0.05895259396778924,0.1863854433533093,0.033219628196079445,-0.019057953957055708,0.06000961425294769,0.07118920641011947
541,18050285,0.0993360579013824,-0.1190835908055305,0.3121055984497083,0.10310858081830895,-0.059096089694709905,0.1867615305994412,0.03334387403596551,-0.019129164745137834,0.06023466189732002,0.0714559540798205
542,18051491,0.0885646790266037,-0.1166899502277374,0.24687904357910107,0.10321538982121503,-0.05923681777468456,0.1870592667259976,0.033468351796089896,-0.019200604347374105,0.06046025537299157,0.07172333134356346
543,18052679,0.1202804148197174,-0.0724076107144355,0.26602787017822394,0.10335828295402086,-0.059322838016213304,0.18737530783576933,0.03359114143623927,-0.019271079878937367,0.06068285723870047,0.07198714097213695
544,18053879,0.1376343071460724,-0.111304260790348,0.30193275451660107,0.10352344412259615,-0.05945640312916172,0.18773762714118924,0.03371536956918639,-0.01934242756269236,0.0609081423912699,0.0722541172443483
545,18055133,0.1591770648956298,-0.1041233390569686,0.3450178527832026,0.10372305216197526,-0.05958697379633916,0.18817027952857937,0.03384543827659751,-0.01941714962783297,0.06114410792179874,0.0725337254341537
546,18056358,0.1226740479469299,-0.0658250972628593,0.2911610031127907,0.10387332787071026,-0.059667609540486166,0.18852695175739254,0.03397268310323913,-0.01949024244952007,0.06137505343770154,0.0728073480663518
547,18057535,0.2160260081291198,-0.0765964835882186,0.24089473724365185,0.10412759048227822,-0.0597577636016695,0.18881048486312832,0.034095241277236774,-0.019560577337279235,0.061597283378385444,0.07307069852627517
548,18058728,0.1484056860208511,-0.1172883585095405,0.3282627487182612,0.1043046384657011,-0.05989768861337138,0.1892021023223492,0.03421967671092636,-0.01963203527979499,0.061823001486456,0.07333816602712241
549,18059783,0.1627675145864486,-0.0466759800910949,0.3414272689819331,0.1044763581935898,-0.059946931772367484,0.18956230809112515,0.034329899268820595,-0.019695279292814834,0.06202298972149214,0.07357511307651296
