time_micros,gyro_x,gyro_y,gyro_z,rotation_x,rotation_y,rotation_z,total_rotation
15322722,0.0280998013913631,-0.0424551330506801,-0.0079412478953599,0.0,0.0,0.0,0.0
15323934,0.0280998013913631,-0.0424551330506801,-0.0079412478953599,0.0019513200301557038,-0.002948189930274053,-0.000551459986027179,0.003578209306517057
15325017,0.0280998013913631,-0.0424551330506801,-0.0079412478953599,0.003694950057101766,-0.005582587367969433,-0.0010442249735415643,0.006775569602687002
15325997,0.0280998013913631,-0.0424551330506801,-0.0079412478953599,0.005272750081485091,-0.007966437311590366,-0.0014901249622434089,0.00966884115416119
15327015,0.0280998013913631,-0.0424551330506801,-0.0079412478953599,0.006911730106813892,-0.010442722253025173,-0.0019533149505071615,0.012674300786202746
15328015,0.0280998013913631,-0.0424551330506801,-0.0079412478953599,0.008521730131694837,-0.012875222195495514,-0.0024083149389784314,0.015626618695870283
15328979,0.0280998013913631,-0.0424551330506801,-0.0079412478953599,0.010073770155680067,-0.015220152140036924,-0.0028469349278647353,0.018472653160789793
15329946,0.0280998013913631,-0.0424551330506801,-0.0079412478953599,0.01163064017973994,-0.017572379584405745,-0.0032869199167164533,0.021327544579438303
15330913,0.0280998013913631,-0.0424551330506801,-0.0079412478953599,0.013187510203799812,-0.019924607028774563,-0.0037269049055681713,0.024182435998086813
15331880,0.0280998013913631,-0.0424551330506801,-0.0079412478953599,0.014744380227859684,-0.02227683447314338,-0.004166889894419889,0.027037327416735323
15333322,0.0280998013913631,-0.0424551330506801,-0.0079412478953599,0.017066000263738005,-0.025784499390185612,-0.00482299987779546,0.03129456984247591
15334497,0.0280998013913631,-0.0424551330506801,-0.0079412478953599,0.018957750292973113,-0.028642686822588262,-0.005357624864249202,0.03476354338633527
15335472,0.0280998013913631,-0.0424551330506801,-0.0079412478953599,0.020527500317232033,-0.031014374266496843,-0.005801249853008689,0.037642053348261116
15336443,0.0280998013913631,-0.0424551330506801,-0.0079412478953599,0.022090810341391428,-0.033376331710635546,-0.006243054841814292,0.040508754038548304
15337414,0.0280998013913631,-0.0424551330506801,-0.0079412478953599,0.023654120365550823,-0.03573828915477425,-0.006684859830619895,0.04337545472883548
15338385,0.0280998013913631,-0.0424551330506801,-0.0079412478953599,0.025217430389710218,-0.03810024659891295,-0.007126664819425498,0.04624215541912266
15339355,0.0280998013913631,-0.0424551330506801,-0.0079412478953599,0.026779130413844734,-0.04045977154310918,-0.0075680148082426305,0.04910590379150017
15340534,0.0280998013913631,-0.0424551330506801,-0.0079412478953599,0.028677320443179367,-0.04332768897528171,-0.008104459794650257,0.0525866866069982
15341670,0.0280998013913631,-0.0424551330506801,-0.0079412478953599,0.03050628047144412,-0.04609100890992802,-0.008621339781553619,0.05594051975238053
15342856,0.0280998013913631,-0.0424551330506801,-0.0079412478953599,0.032415740500952916,-0.04897595384169784,-0.009160969767880545,0.05944196879324622
15343957,0.0280998013913631,-0.0424551330506801,-0.0079412478953599,0.03418835052834684,-0.05165413627835769,-0.009661924755187413,0.06269247081179019
15345091,0.0280998013913631,-0.0424551330506801,-0.0079412478953599,0.03601409055656183,-0.05441259121311905,-0.010177894742113834,0.06604039932135318
15346359,0.0280998013913631,-0.0424551330506801,-0.0079412478953599,0.03805557058811087,-0.05749700114017144,-0.010754834727495404,0.06978393843081161
15347559,0.0280998013913631,-0.0424551330506801,-0.0079412478953599,0.039987570617968,-0.06041600107113585,-0.011300834713660928,0.07332671992241266
15348619,0.0280998013913631,-0.0424551330506801,-0.0079412478953599,0.041694170644341805,-0.06299445101015441,-0.011783134701440474,0.07645617690666025
15349584,0.0280998013913631,-0.0424551330506801,-0.0079412478953599,0.043247820668351915,-0.0653418134546383,-0.012222209690315249,0.07930516368948944
15350547,0.0280998013913631,-0.0424551330506801,-0.0079412478953599,0.04479825069231226,-0.06768431089923724,-0.012660374679213082,0.08214824583649927
15351515,0.0280998013913631,-0.0424551330506801,-0.0079412478953599,0.04635673071639702,-0.07003897084354853,-0.013100814668053271,0.08500608957305746
15352687,0.0280998013913631,-0.0424551330506801,-0.0079412478953599,0.04824365074555748,-0.07288986077612376,-0.0136340746545416,0.0884662061631878
15353821,0.0280998013913631,-0.0424551330506801,-0.0079412478953599,0.050069390773772475,-0.07564831571088514,-0.01415004464146802,0.0918141346727508
15354793,0.0280998013913631,-0.0424551330506801,-0.0079412478953599,0.05163431079795675,-0.0780127056549663,-0.014592304630262095,0.09468378768094765
15355756,0.0280998013913631,-0.0424551330506801,-0.0079412478953599,0.0531847408219171,-0.08035520309956524,-0.015030469619159928,0.09752686982795748
15356721,0.0280998013913631,-0.0424551330506801,-0.0079412478953599,0.05473839084592721,-0.08270256554404913,-0.015469544608034702,0.10037585661078666
15357689,0.0280998013913631,-0.0424551330506801,-0.0079412478953599,0.056296870870011964,-0.08505722548836042,-0.015909984596874892,0.10323370034734485
15358658,0.0280998013913631,-0.0424551330506801,-0.0079412478953599,0.0578569608941216,-0.08741431793261419,-0.016350879585703554,0.1060944964018127
15359711,0.0280998013913631,-0.0424551330506801,-0.0079412478953599,0.05955229092032124,-0.08997574037203546,-0.0168299945735638,0.10920328716069262
15360869,0.0280998013913631,-0.0424551330506801,-0.0079412478953599,0.06141667094913337,-0.09279257530541611,-0.01735688456021353,0.11262207130008763
15361861,0.0280998013913631,-0.0424551330506801,-0.0079412478953599,0.06301379097381526,-0.09520561524834668,-0.01780824454877703,0.11555077066647781
15362827,0.0280998013913631,-0.0424551330506801,-0.0079412478953599,0.06456905099785025,-0.09755541019277303,-0.018247774537640277,0.11840270976721666
15363789,0.0280998013913631,-0.0424551330506801,-0.0079412478953599,0.06611787102178572,-0.0998954751374295,-0.01868548452654964,0.12124283959631683
15364753,0.0280998013913631,-0.0424551330506801,-0.0079412478953599,0.06766991104577096,-0.10224040508197091,-0.019124104515435943,0.12408887406123635
15365716,0.0280998013913631,-0.0424551330506801,-0.0079412478953599,0.06922034106973131,-0.10458290252656985,-0.019562269504333776,0.12693195620824618
15366918,0.0280998013913631,-0.0424551330506801,-0.0079412478953599,0.0711555610996382,-0.1075067674574192,-0.02010917949047624,0.13048064233566659
15367963,0.0280998013913631,-0.0424551330506801,-0.0079412478953599,0.0728380111256388,-0.1100487298973007,-0.020584654478428718,0.13356581455126915
15368931,0.0280998013913631,-0.0424551330506801,-0.0079412478953599,0.07439649114972355,-0.112403389841612,-0.021025094467268905,0.13642365828782732
15370130,0.0161879286170005,-0.0568104684352874,-0.1304197311401367,0.07550856363631055,-0.11630613492974227,-0.029984622158582244,0.14187225863680014
15371318,0.0161879286170005,-0.0568104684352874,-0.1304197311401367,0.0766104336230206,-0.12017307501706402,-0.03886195234814041,0.1477192534481314
15372510,0.0161879286170005,-0.0568104684352874,-0.1304197311401367,0.0777160136096859,-0.12405303510467977,-0.04776917253833682,0.15398320731515236
15373705,0.0161879286170005,-0.0568104684352874,-0.1304197311401367,0.07882437609631765,-0.12794276019251605,-0.05669881022901191,0.1606156506509839
15374756,0.0161879286170005,-0.0568104684352874,-0.1304197311401367,0.0797991785845603,-0.13136376526976787,-0.06455240789671025,0.16670741163452957
15375722,0.0161879286170005,-0.0568104684352874,-0.1304197311401367,0.08069514357375383,-0.1345080953407719,-0.07177084305084594,0.17249692119229285
15376689,0.0161879286170005,-0.0568104684352874,-0.1304197311401367,0.08159203606293618,-0.13765568041184945,-0.07899675070514119,0.17845681079890152
15377655,0.0161879286170005,-0.0568104684352874,-0.1304197311401367,0.08248800105212971,-0.14080001048285348,-0.08621518585927687,0.18455885658048887
15378620,0.0161879286170005,-0.0568104684352874,-0.1304197311401367,0.08338303854133443,-0.14394108555378402,-0.093426148513253,0.19078839706021913
15379867,0.0161879286170005,-0.0568104684352874,-0.1304197311401367,0.08453963102738446,-0.14800007064544243,-0.10274435621222525,0.19901601156381082
15381106,0.0161879286170005,-0.0568104684352874,-0.1304197311401367,0.08568880351352398,-0.15203301573651284,-0.11200278390992102,0.20736738539387176
15382194,0.0161879286170005,-0.0568104684352874,-0.1304197311401367,0.08669792350135272,-0.15557445581648427,-0.12013286408352311,0.2148298076965854
15383174,0.0161879286170005,-0.0568104684352874,-0.1304197311401367,0.08760687349038963,-0.15876435588851737,-0.12745591423989264,0.22164407291462543
15384130,0.0161879286170005,-0.0568104684352874,-0.1304197311401367,0.08849356347969503,-0.1618761359587864,-0.13459962439243273,0.22836824003540046
15385096,0.0161879286170005,-0.0568104684352874,-0.1304197311401367,0.08938952846888856,-0.16502046602979042,-0.1418180595465684,0.23523308445483063
15386062,0.0161879286170005,-0.0568104684352874,-0.1304197311401367,0.0902854934580821,-0.16816479610079446,-0.14903649470070407,0.24216264313321356
15387380,0.0161879286170005,-0.0568104684352874,-0.1304197311401367,0.09150793844333786,-0.1724548861976716,-0.15888524991100514,0.2517119647749867
15388550,0.0161879286170005,-0.0568104684352874,-0.1304197311401367,0.09259311343024929,-0.1762632362836703,-0.1676280750976912,0.2602717515998561
15389588,0.0161879286170005,-0.0568104684352874,-0.1304197311401367,0.09355585841863737,-0.17964192635996656,-0.17538453026331527,0.26792471667700146
15390555,0.0161879286170005,-0.0568104684352874,-0.1304197311401367,0.09445275090781971,-0.1827895114310441,-0.1826104379176105,0.2750997994905047
15391522,0.0161879286170005,-0.0568104684352874,-0.1304197311401367,0.09534964339700205,-0.18593709650212165,-0.18983634557190573,0.2823154201450406
15392493,0.0161879286170005,-0.0568104684352874,-0.1304197311401367,0.09625024588613965,-0.1890977015734932,-0.1970921432268392,0.28959862481591503
15393672,0.0161879286170005,-0.0568104684352874,-0.1304197311401367,0.09734376837295038,-0.1929353466601534,-0.20590222091496133,0.2984888302929169
15394737,0.0161879286170005,-0.0568104684352874,-0.1304197311401367,0.09833155586103641,-0.19640192173843427,-0.2138604335848935,0.3065600998070702
15395696,0.0161879286170005,-0.0568104684352874,-0.1304197311401367,0.09922102835030824,-0.1995234668089238,-0.22102656123791226,0.3138585143771011
15396659,0.0161879286170005,-0.0568104684352874,-0.1304197311401367,0.10011421083953534,-0.20265803187970732,-0.22822257889156924,0.3212143810810748
15397616,0.0161879286170005,-0.0568104684352874,-0.1304197311401367,0.10100182832882955,-0.20577306695004985,-0.23537376154426887,0.32854943620602123
15398575,0.0161879286170005,-0.0568104684352874,-0.1304197311401367,0.10189130081810138,-0.20889461202053938,-0.2425398891972876,0.33592319652779123
15399796,0.0161879286170005,-0.0568104684352874,-0.1304197311401367,0.10302377830444227,-0.21286896711028672,-0.2516638118921113,0.3453429748392041
15401019,0.0161879286170005,-0.0568104684352874,-0.1304197311401367,0.10415811079076079,-0.21684983220018106,-0.26080267958725406,0.3548109347929387
15402231,0.0161879286170005,-0.0568104684352874,-0.1304197311401367,0.10528224077720236,-0.22079489228926688,-0.2698593497806417,0.36422356231870623
15403401,0.0161879286170005,-0.0568104684352874,-0.1304197311401367,0.10636741576411378,-0.22460324237526558,-0.27860217496732775,0.3733360624401876
15404586,0.0161879286170005,-0.0568104684352874,-0.1304197311401367,0.1074665032508574,-0.2284604174623668,-0.28745708765640726,0.3825895828586409
15405785,0.0161879286170005,-0.0568104684352874,-0.1304197311401367,0.1085785757374444,-0.23236316255049708,-0.2964166153477206,0.39197545366239356
15406839,0.0161879286170005,-0.0568104684352874,-0.1304197311401367,0.10955616072565348,-0.23579393262796938,-0.30429263051589767,0.40024409552595924
15407808,0.0161879286170005,-0.0568104684352874,-0.1304197311401367,0.11045490821481345,-0.23894802769919393,-0.31153348317051205,0.4078597281252825
15408771,0.0161879286170005,-0.0568104684352874,-0.1304197311401367,0.11134809070404054,-0.24208259276997746,-0.31872950082416907,0.4154405778463317
15409922,0.0161879286170005,-0.0568104684352874,-0.1304197311401367,0.11241564319116451,-0.24582909785457957,-0.3273303485078235,0.4245166418885517
15411113,0.0161879286170005,-0.0568104684352874,-0.1304197311401367,0.113520295677841,-0.24970580294212183,-0.3362300961978604,0.43392455927612195
15412166,0.0161879286170005,-0.0568104684352874,-0.1304197311401367,0.11449695316606127,-0.25313331801952066,-0.3440986388658778,0.44225547169620505
15413138,0.0161879286170005,-0.0568104684352874,-0.1304197311401367,0.11539848315518768,-0.2562971780909657,-0.35136190902097086,0.44995582507927523
15414109,0.0161879286170005,-0.0568104684352874,-0.1304197311401367,0.11629908564432527,-0.25945778316233725,-0.35861770667590437,0.45765759920130844
15415211,0.0161879286170005,-0.0568104684352874,-0.1304197311401367,0.11732119063199739,-0.26304479324333774,-0.36685240185174034,0.46640916561333845
15416212,0.0161879286170005,-0.0568104684352874,-0.1304197311401367,0.11824961812079939,-0.26630304831691437,-0.3743323745114607,0.47436801360967007
15417397,0.0161879286170005,-0.0568104684352874,-0.1304197311401367,0.119348705607543,-0.2701602234040156,-0.3831872872005402,0.48380074091718056
15418556,0.0161879286170005,-0.0568104684352874,-0.1304197311401367,0.12042367809457748,-0.2739327684892057,-0.3918479148854711,0.4930373335743234
15419743,0.0161879286170005,-0.0568104684352874,-0.1304197311401367,0.12152462058129872,-0.27779645357645394,-0.40071777257486974,0.5025075484850438
15420950,0.0161879286170005,-0.0568104684352874,-0.1304197311401367,0.12264411306779623,-0.28172523866517224,-0.4097370802674596,0.5121475993473339
15422146,0.0161879286170005,-0.0568104684352874,-0.1304197311401367,0.12375340305441679,-0.285618218753082,-0.41867419045829424,0.5217094492216336
15423322,0.0161879286170005,-0.0568104684352874,-0.1304197311401367,0.12484414304126108,-0.2894460988395217,-0.42746185064593767,0.5311202669290402
15424538,0.0161879286170005,-0.0568104684352874,-0.1304197311401367,0.1259719830276579,-0.2934041789289015,-0.43654841083996354,0.5408599335574424
15425606,0.0161879286170005,-0.0568104684352874,-0.1304197311401367,0.12696255301571038,-0.29688051900740287,-0.44452904101037444,0.5494211506085065
15426574,0.0161879286170005,-0.0568104684352874,-0.1304197311401367,0.12786037300488154,-0.30003135907855394,-0.45176242116482923,0.5571861238331229
15427540,0.0161879286170005,-0.0568104684352874,-0.1304197311401367,0.12875633799407507,-0.303175689149558,-0.4589808563189649,0.5649399255958497
15428522,0.0161879286170005,-0.0568104684352874,-0.1304197311401367,0.12966714298308962,-0.3063720992217381,-0.46631885147565355,0.572826939304101
15429747,0.0161879286170005,-0.0568104684352874,-0.1304197311401367,0.13080333046938578,-0.31035947431177946,-0.47547266417111544,0.582672093832325
15430931,0.0161879286170005,-0.0568104684352874,-0.1304197311401367,0.13190149045614058,-0.3142133943988072,-0.48432010436003536,0.5921942450678555
15431978,0.0161879286170005,-0.0568104684352874,-0.1304197311401367,0.13287258294442797,-0.31762137947576496,-0.49214381202709545,0.6006196764300791
15432955,0.0161879286170005,-0.0568104684352874,-0.1304197311401367,0.13377875043349843,-0.32080151454757755,-0.4994444446829863,0.6084859235251581
15433926,0.0161879286170005,-0.0568104684352874,-0.1304197311401367,0.13467935292263603,-0.3239621196189491,-0.5067002423379198,0.6163076493416002
15434897,0.0161879286170005,-0.0568104684352874,-0.1304197311401367,0.13557995541177362,-0.32712272469032067,-0.5139560399928532,0.624133008551393
15435910,0.0161879286170005,-0.0568104684352874,-0.1304197311401367,0.13651951290044137,-0.33042003976477935,-0.5215256826544883,0.6323005754773295
15436889,0.0161879286170005,-0.0568104684352874,-0.1304197311401367,0.13742753538948946,-0.33360668483673894,-0.5288412603106982,0.6401974900434992
15437860,0.0161879286170005,-0.0568104684352874,-0.1304197311401367,0.13832813787862705,-0.3367672899081105,-0.5360970579656317,0.6480331294312256
15438825,0.0161879286170005,-0.0568104684352874,-0.1304197311401367,0.13922317536783177,-0.33990836497904103,-0.5433080206196078,0.6558234475922794
15439789,0.0161879286170005,-0.0568104684352874,-0.1304197311401367,0.14011728535704768,-0.3430461850498981,-0.5505115107734244,0.663608666479843
15440756,0.0161879286170005,-0.0568104684352874,-0.1304197311401367,0.14101417784623002,-0.34619377012097563,-0.5577374184277196,0.6714209951577627
15441724,0.0161879286170005,-0.0568104684352874,-0.1304197311401367,0.14191199783540118,-0.3493446101921267,-0.5649707985821745,0.6792441939762929
15442839,0.0161879286170005,-0.0568104684352874,-0.1304197311401367,0.14294616032292787,-0.3529739352740827,-0.5733026362600847,0.6882587569197384
15443962,0.0161879286170005,-0.0568104684352874,-0.1304197311401367,0.14398774281036505,-0.35662930035662677,-0.5816942539392714,0.6973414751887675
15445169,0.0161879286170005,-0.0568104684352874,-0.1304197311401367,0.14510723529686256,-0.36055808544534507,-0.5907135616318613,0.7071073147771211
15446375,0.0161879286170005,-0.0568104684352874,-0.1304197311401367,0.14622580028337126,-0.3644836155339899,-0.5997253968242915,0.7168687761768506
15447411,0.0161879286170005,-0.0568104684352874,-0.1304197311401367,0.14718669027178172,-0.36785579561013915,-0.6074669069895964,0.7252570932053245
15448370,0.0296269636601209,-0.0421497002243995,-0.0262672044336795,0.1488145927502161,-0.3701717805435843,-0.6089102019451536,0.7279729144405771
15449341,0.0296269636601209,-0.0421497002243995,-0.0262672044336795,0.15046286522838065,-0.3725167454761966,-0.6103715569001547,0.7307265130988679
15450313,0.0296269636601209,-0.0421497002243995,-0.0262672044336795,0.1521128352065227,-0.37486412540873953,-0.6118344168551094,0.73348672844262
15451280,0.0296269636601209,-0.0421497002243995,-0.0262672044336795,0.15375431768477718,-0.37719943034162945,-0.6132897518102959,0.736236456671561
15452457,0.0296269636601209,-0.0421497002243995,-0.0262672044336795,0.15575227515830925,-0.3800418852599453,-0.6150611367557504,0.7395882690498808
15453576,0.0296269636601209,-0.0421497002243995,-0.0262672044336795,0.1576517776331456,-0.3827442701822864,-0.6167452317038927,0.742779873298779
15454548,0.0296269636601209,-0.0421497002243995,-0.0262672044336795,0.15930174761128765,-0.3850916501148293,-0.6182080916588475,0.7455560813061929
15455513,0.0296269636601209,-0.0421497002243995,-0.0262672044336795,0.16093983508958712,-0.38742212504785806,-0.6196604166141266,0.7483158192993481
15456472,0.0296269636601209,-0.0421497002243995,-0.0262672044336795,0.1625677375680215,-0.3897381099813032,-0.6211037115696838,0.7510618377972752
15457437,0.0296269636601209,-0.0421497002243995,-0.0262672044336795,0.16420582504632097,-0.39206858491433194,-0.6225560365249629,0.7538284598431799
15458402,0.0296269636601209,-0.0421497002243995,-0.0262672044336795,0.16584391252462044,-0.3943990598473607,-0.6240083614802421,0.7565984780101084
15459364,0.0296269636601209,-0.0421497002243995,-0.0262672044336795,0.16747690750298735,-0.3967222897805976,-0.6254561714356602,0.7593632280684117
15460335,0.0296269636601209,-0.0421497002243995,-0.0262672044336795,0.1691251799811519,-0.3990672547132099,-0.6269175263906613,0.7621571919123906
15461304,0.0296269636601209,-0.0421497002243995,-0.0262672044336795,0.1707700574593614,-0.401407389645961,-0.6283758713457551,0.7649487176775938
15462269,0.0296269636601209,-0.0421497002243995,-0.0262672044336795,0.17240814493766088,-0.40373786457898975,-0.6298281963010343,0.7677319770541424
15463234,0.0296269636601209,-0.0421497002243995,-0.0262672044336795,0.17404623241596034,-0.4060683395120185,-0.6312805212563134,0.7705184513623806
15464188,0.0296269636601209,-0.0421497002243995,-0.0262672044336795,0.17566564739450716,-0.40837224944581063,-0.6327162912121024,0.7732762888884934
15465160,0.0296269636601209,-0.0421497002243995,-0.0262672044336795,0.1773156173726492,-0.41071962937835355,-0.6341791511670571,0.7760893234002804
15466128,0.0296269636601209,-0.0421497002243995,-0.0262672044336795,0.1789587973508812,-0.41305734931117405,-0.6356359911221973,0.7788939197215144
15467254,0.0296269636601209,-0.0421497002243995,-0.0262672044336795,0.18087018232556012,-0.4157766392330293,-0.6373306210700153,0.7821601863684224
15468369,0.0296269636601209,-0.0421497002243995,-0.0262672044336795,0.18276289480048644,-0.418469364155648,-0.639008696018343,0.7853986236553697
15469389,0.0296269636601209,-0.0421497002243995,-0.0262672044336795,0.18449434477754909,-0.4209326640848597,-0.6405437959710732,0.788364652623078
15470345,0.0296269636601209,-0.0421497002243995,-0.0262672044336795,0.18611715475605092,-0.423241404018513,-0.6419825759267694,0.7911475900005133
15471319,0.0296269636601209,-0.0421497002243995,-0.0262672044336795,0.187770519734148,-0.4255936139509171,-0.6434484458816315,0.7939858908220733
15472294,0.0296269636601209,-0.0421497002243995,-0.0262672044336795,0.18942558221222258,-0.42794823888325184,-0.6449158208364473,0.7968300711725587
15473261,0.0296269636601209,-0.0421497002243995,-0.0262672044336795,0.19106706469047707,-0.43028354381614176,-0.6463711557916337,0.7996538140519465
15474229,0.0296269636601209,-0.0421497002243995,-0.0262672044336795,0.19271024466870906,-0.43262126374896226,-0.6478279957467739,0.8024833383449808
15475340,0.0296269636601209,-0.0421497002243995,-0.0262672044336795,0.19459616714372532,-0.43530432867185853,-0.6495000506952869,0.805734349944612
15476385,0.0296269636601209,-0.0421497002243995,-0.0262672044336795,0.19637005462022578,-0.4378280035993352,-0.6510727756468586,0.808795597339547
15477355,0.0296269636601209,-0.0421497002243995,-0.0262672044336795,0.1980166295984128,-0.44017055353201695,-0.6525326256019061,0.8116400244376287
15478722,0.0296269636601209,-0.0421497002243995,-0.0262672044336795,0.20033711206767224,-0.44347185843714676,-0.6545899605385554,0.8156532744586877
15479873,0.0296269636601209,-0.0421497002243995,-0.0262672044336795,0.202290934541789,-0.44625152335726703,-0.6563222154852149,0.8190365650176387
15480906,0.0296269636601209,-0.0421497002243995,-0.0262672044336795,0.2040444520185593,-0.44874621828557654,-0.6578768804373427,0.822076210967773
15481878,0.0296269636601209,-0.0421497002243995,-0.0262672044336795,0.20569442199670135,-0.45109359821811945,-0.6593397403922975,0.8249391025127306
15482873,0.0296269636601209,-0.0421497002243995,-0.0262672044336795,0.20738343447432617,-0.4534965231490662,-0.6608372153461863,0.8278724603398524
15484194,0.0296269636601209,-0.0421497002243995,-0.0262672044336795,0.20962583194462003,-0.4566867380573884,-0.6628253202849674,0.8317711051406159
15485261,0.0296269636601209,-0.0421497002243995,-0.0262672044336795,0.21143706442062576,-0.4592635429833383,-0.6644311552355197,0.8349235858280851
15486236,0.0296269636601209,-0.0421497002243995,-0.0262672044336795,0.21309212689870036,-0.46161816791567306,-0.6658985301903354,0.8378069228680814
15487357,0.0296269636601209,-0.0421497002243995,-0.0262672044336795,0.21499502437349174,-0.46432538283787533,-0.6675856351383851,0.8411251404493976
15488361,0.0296269636601209,-0.0421497002243995,-0.0262672044336795,0.2166993143509142,-0.4667500427681974,-0.6690966550918569,0.8440998336212262
15489589,0.0296269636601209,-0.0421497002243995,-0.0262672044336795,0.2187838443232994,-0.4697156626829739,-0.6709447950349479,0.8477417603793477
15490785,0.0296269636601209,-0.0421497002243995,-0.0262672044336795,0.22081405429640422,-0.47260400259997115,-0.6727447749795218,0.8512925009129214
15491961,0.0296269636601209,-0.0421497002243995,-0.0262672044336795,0.2228103142699588,-0.4754440425183564,-0.6745146549250226,0.8547873966197074
15493144,0.0296269636601209,-0.0421497002243995,-0.0262672044336795,0.22481845674335593,-0.4783009874362559,-0.676295069870199,0.8583065854376856
15494342,0.0296269636601209,-0.0421497002243995,-0.0262672044336795,0.22685206171641578,-0.4811941573531143,-0.6780980598146803,0.8618739198399009
15495534,0.0296269636601209,-0.0421497002243995,-0.0262672044336795,0.22887548168961055,-0.4840728372703892,-0.6798920197594396,0.8654268637119061
15496744,0.0296269636601209,-0.0421497002243995,-0.0262672044336795,0.23092945666240056,-0.4869949871864148,-0.6817130697033648,0.8690369617590914
15497808,0.0296269636601209,-0.0421497002243995,-0.0262672044336795,0.23273559663847374,-0.4895645471125729,-0.683314389654056,0.8722143422579681
15498770,0.0296269636601209,-0.0421497002243995,-0.0262672044336795,0.23436859161684065,-0.4918877770458098,-0.6847621996094742,0.8750894194066885
15499994,0.0296269636601209,-0.0421497002243995,-0.0262672044336795,0.23644633158931583,-0.49484373696086387,-0.6866043195527505,0.8787506377579096
15501178,0.0296269636601209,-0.0421497002243995,-0.0262672044336795,0.2384561715626905,-0.4977030968786939,-0.6883862394978806,0.8822954908243673
15502398,0.0296269636601209,-0.0421497002243995,-0.0262672044336795,0.24052712153525563,-0.5006493967940255,-0.6902223394413424,0.8859514617450196
15503644,0.0296269636601209,-0.0421497002243995,-0.0262672044336795,0.24264220650723606,-0.5036584867075528,-0.6920975693835992,0.8896887979276396
15504874,0.0296269636601209,-0.0421497002243995,-0.0262672044336795,0.24473013147957628,-0.5066289366221904,-0.6939487193265975,0.8933815208140176
15505938,0.0296269636601209,-0.0421497002243995,-0.0262672044336795,0.24653627145564946,-0.5091984965483485,-0.6955500392772888,0.8965785515887551
15507176,0.0296269636601209,-0.0421497002243995,-0.0262672044336795,0.2486377764278098,-0.5121882664624309,-0.6974132292199163,0.9003014919790521
15508363,0.0296269636601209,-0.0421497002243995,-0.0262672044336795,0.250652708901117,-0.5150548713800527,-0.6991996641649074,0.9038741457637286
15509541,0.0296269636601209,-0.0421497002243995,-0.0262672044336795,0.2526523638746266,-0.5178997412982992,-0.7009725541103156,0.9074226582052166
15510723,0.0296269636601209,-0.0421497002243995,-0.0262672044336795,0.2546588088480462,-0.520754271216268,-0.7027514640555383,0.9109861360888512
15511893,0.0296269636601209,-0.0421497002243995,-0.0262672044336795,0.2566448838217357,-0.5235798211350697,-0.7045123140013172,0.9145162798284099
15512952,0.0296269636601209,-0.0421497002243995,-0.0262672044336795,0.25844253629792135,-0.5261373060615748,-0.7061061089522401,0.9177139241057131
15513921,0.0296269636601209,-0.0421497002243995,-0.0262672044336795,0.26008741377613087,-0.5284774409943259,-0.7075644539073339,0.9206418005271384
15514888,0.0296269636601209,-0.0421497002243995,-0.0262672044336795,0.26172889625438533,-0.5308127459272158,-0.7090197888625204,0.9235655078942602
15515857,0.0296269636601209,-0.0421497002243995,-0.0262672044336795,0.26337377373259485,-0.5331528808599669,-0.7104781338176142,0.926497122333572
15516819,0.0296269636601209,-0.0421497002243995,-0.0262672044336795,0.2650067687109618,-0.5354761107932039,-0.7119259437730323,0.9294093834849978
15518066,0.0296269636601209,-0.0421497002243995,-0.0262672044336795,0.26712355118291975,-0.5384876157066617,-0.7138026787152428,0.9331871023578688
15519256,0.0296269636601209,-0.0421497002243995,-0.0262672044336795,0.26914357615615947,-0.5413614656240754,-0.7155936286600949,0.9367949308294186
15520475,0.0296269636601209,-0.0421497002243995,-0.0262672044336795,0.27121282862874707,-0.5443053505394765,-0.717428223603603,0.9404934710362056
15521677,0.0296269636601209,-0.0421497002243995,-0.0262672044336795,0.27325322360171694,-0.5472081804560573,-0.7192372335478989,0.9441431645086427
15522844,0.0296269636601209,-0.0421497002243995,-0.0262672044336795,0.2752342060754739,-0.5500264853750672,-0.7209935684938168,0.9476891518939602
15524078,0.0296269636601209,-0.0421497002243995,-0.0262672044336795,0.27732892104772416,-0.5530065952894272,-0.7228507384366297,0.9514414406265265
15525141,0.0280998013913631,-0.0464257597923278,0.0992656052112579,0.27904035107417263,-0.5558341753923134,-0.7168049256927596,0.9490123547978989
15526116,0.0280998013913631,-0.0464257597923278,0.0992656052112579,0.28061010109843154,-0.5584276754866823,-0.711259612969078,0.9468229690015203
15527090,0.0280998013913631,-0.0464257597923278,0.0992656052112579,0.2821782411226656,-0.5610185155809543,-0.7057199877456259,0.9446729781736244
15528058,0.0280998013913631,-0.0464257597923278,0.0992656052112579,0.28373672114675036,-0.5635933956746456,-0.7002144875235504,0.9425732709519482
15529023,0.0280998013913631,-0.0464257597923278,0.0992656052112579,0.28529037117076045,-0.5661602957680466,-0.6947260498021631,0.9405170709033568
15530333,0.0280998013913631,-0.0464257597923278,0.0992656052112579,0.28739947120335446,-0.5696448958948396,-0.6872754245016269,0.9377853019699669
15531563,0.0280998013913631,-0.0464257597923278,0.0992656052112579,0.289379771233958,-0.5729166960138895,-0.6802797992194441,0.9352832714193794
15532631,0.0280998013913631,-0.0464257597923278,0.0992656052112579,0.2910992512605309,-0.5757575761172596,-0.6742055489744269,0.9331605878994098
15533600,0.0280998013913631,-0.0464257597923278,0.0992656052112579,0.2926593412846405,-0.5783351162110477,-0.6686943612521219,0.931275010646366
15534566,0.0280998013913631,-0.0464257597923278,0.0992656052112579,0.2942146013086755,-0.5809046763045455,-0.6632002360305052,0.9294337134226568
15535539,0.0280998013913631,-0.0464257597923278,0.0992656052112579,0.29578113133288464,-0.5834928563987207,-0.6576662983072825,0.9276181062539168
15536506,0.0280998013913631,-0.0464257597923278,0.0992656052112579,0.2973380013569445,-0.5860650764923152,-0.6521664855854363,0.925852734432288
15537523,0.0280998013913631,-0.0464257597923278,0.0992656052112579,0.2989753713822484,-0.5887702965907492,-0.6463822978521193,0.9240383162062589
15538535,0.0280998013913631,-0.0464257597923278,0.0992656052112579,0.3006046914074279,-0.5914622166886992,-0.6406265476199494,0.9222760474944148
15539506,0.0280998013913631,-0.0464257597923278,0.0992656052112579,0.3021680014315873,-0.5940450767826809,-0.6351039848971856,0.920625942482171
15540471,0.0280998013913631,-0.0464257597923278,0.0992656052112579,0.3037216514555974,-0.5966119768760819,-0.6296155471757983,0.9190258047304122
15541439,0.0280998013913631,-0.0464257597923278,0.0992656052112579,0.30528013147968214,-0.5991868569697733,-0.6241100469537227,0.917460734282479
15542408,0.0280998013913631,-0.0464257597923278,0.0992656052112579,0.30684022150379175,-0.6017643970635613,-0.6185988592314178,0.9159344189122816
15543361,0.0280998013913631,-0.0464257597923278,0.0992656052112579,0.3083745515275033,-0.6042993771558008,-0.6131786715127835,0.914472899794663
15544526,0.0280998013913631,-0.0464257597923278,0.0992656052112579,0.31025020155648964,-0.6073982772685594,-0.6065527337455128,0.9127398718193542
15545940,0.0280998013913631,-0.0464257597923278,0.0992656052112579,0.31252674159167126,-0.6111595174054184,-0.5985106084211173,0.9107161293826672
15547011,0.0280998013913631,-0.0464257597923278,0.0992656052112579,0.31425105161831873,-0.6140083775090789,-0.5924192956754117,0.9092417901653562
15547982,0.0280998013913631,-0.0464257597923278,0.0992656052112579,0.3158143616424781,-0.6165912376030606,-0.5868967329526479,0.9079489195208129
15548947,0.0280998013913631,-0.0464257597923278,0.0992656052112579,0.3173680116664882,-0.6191581376964616,-0.5814082952312606,0.9067054979808004
15549912,0.0280998013913631,-0.0464257597923278,0.0992656052112579,0.3189216616904983,-0.6217250377898625,-0.5759198575098733,0.9055035787805742
15550877,0.0280998013913631,-0.0464257597923278,0.0992656052112579,0.3204753117145084,-0.6242919378832635,-0.570431419788486,0.9043433273964373
15551849,0.0280998013913631,-0.0464257597923278,0.0992656052112579,0.3220402317386927,-0.626877457977342,-0.5649031695654928,0.9032169446836041
15552809,0.0280998013913631,-0.0464257597923278,0.0992656052112579,0.3235858317625784,-0.6294310580702589,-0.5594431693452526,0.9021462781101446
15553768,0.0280998013913631,-0.0464257597923278,0.0992656052112579,0.32512982178643923,-0.6319819981630791,-0.5539888566252418,0.9011183608616699
15554728,0.0280998013913631,-0.0464257597923278,0.0992656052112579,0.32667542181032494,-0.634535598255996,-0.5485288564050016,0.9001311920925901
15555690,0.0280998013913631,-0.0464257597923278,0.0992656052112579,0.3282242418342604,-0.6370945183491066,-0.5430574811843025,0.8991840779887031
15556837,0.0280998013913631,-0.0464257597923278,0.0992656052112579,0.33007091186279885,-0.640145538460123,-0.5365339184211614,0.8981101062145475
15557909,0.0280998013913631,-0.0464257597923278,0.0992656052112579,0.33179683188947123,-0.6429970585638803,-0.5304369181752264,0.8971608992465755
15558895,0.0280998013913631,-0.0464257597923278,0.0992656052112579,0.3333842919140038,-0.6456198186593138,-0.5248290429490213,0.8963345138191838
15559863,0.0280998013913631,-0.0464257597923278,0.0992656052112579,0.3349427719380886,-0.6481946987530052,-0.5193235427269458,0.895566842840631
15560823,0.0280998013913631,-0.0464257597923278,0.0992656052112579,0.3364883719619743,-0.6507482988459221,-0.5138635425067056,0.8948483185624378
15561783,0.0280998013913631,-0.0464257597923278,0.0992656052112579,0.33803397198586,-0.653301898938839,-0.5084035422864654,0.8941725220465322
15562743,0.0280998013913631,-0.0464257597923278,0.0992656052112579,0.3395795720097457,-0.655855499031756,-0.5029435420662253,0.8935395502397399
15563705,0.0280998013913631,-0.0464257597923278,0.0992656052112579,0.34112839203368117,-0.6584144191248665,-0.4974721668455262,0.8929483097856243
15565106,0.0280998013913631,-0.0464257597923278,0.0992656052112579,0.34338400206853936,-0.6621410792604673,-0.48950397902411313,0.8921645180129405
15566356,0.0280998013913631,-0.0464257597923278,0.0992656052112579,0.34539650209964057,-0.665466079381453,-0.482394603737342,0.8915427079982744
15567626,0.0280998013913631,-0.0464257597923278,0.0992656052112579,0.34744120213123936,-0.6688442795043744,-0.4751714784459825,0.8909859668326249
15568781,0.0280998013913631,-0.0464257597923278,0.0992656052112579,0.34930075215997686,-0.6719165796161651,-0.46860241568100597,0.8905454111973663
15569998,0.0280998013913631,-0.0464257597923278,0.0992656052112579,0.351260122190257,-0.6751537997339567,-0.4616807279018056,0.8901491005737494
15571175,0.0280998013913631,-0.0464257597923278,0.0992656052112579,0.35315509221954183,-0.6782846198478768,-0.45498654013178186,0.8898321731561865
15572378,0.0280998013913631,-0.0464257597923278,0.0992656052112579,0.3550919222494736,-0.6814845999643134,-0.4481444773557933,0.8895757448468589
15573567,0.0280998013913631,-0.0464257597923278,0.0992656052112579,0.35700621227905704,-0.684647340079395,-0.44138203958301664,0.8893894089486863
15574736,0.0280998013913631,-0.0464257597923278,0.0992656052112579,0.3588883023081429,-0.6877568801925408,-0.43473335181482825,0.8892712898581362
15575927,0.0280998013913631,-0.0464257597923278,0.0992656052112579,0.3608058123377761,-0.6909249403078159,-0.42795953904159273,0.8892173381197501
15577136,0.0280998013913631,-0.0464257597923278,0.0992656052112579,0.36275230236785716,-0.6941408804248332,-0.4210833512642277,0.8892311192609359
15578199,0.0280998013913631,-0.0464257597923278,0.0992656052112579,0.36446373239430563,-0.6969684605277194,-0.4150375385203575,0.8893002898808728
15579175,0.0280998013913631,-0.0464257597923278,0.0992656052112579,0.36603509241858945,-0.699564620622185,-0.4094865382964466,0.8894108006732064
15580134,0.0280998013913631,-0.0464257597923278,0.0992656052112579,0.3675790824424503,-0.7021155607150052,-0.4040322255764358,0.8895631971656808
15581108,0.0280998013913631,-0.0464257597923278,0.0992656052112579,0.36914722246668435,-0.7047064008092773,-0.39849260035298373,0.8897624040902808
15582082,0.0280998013913631,-0.0464257597923278,0.0992656052112579,0.3707153624909184,-0.7072972409035493,-0.39295297512953165,0.8900063525838997
15583230,0.0280998013913631,-0.0464257597923278,0.0992656052112579,0.3725636425194817,-0.7103509210146626,-0.38642372486616106,0.8903512755385944
15584293,0.0280998013913631,-0.0464257597923278,0.0992656052112579,0.3742750725459302,-0.7131785011175488,-0.3803779121222909,0.8907259738079091
15585266,0.0280998013913631,-0.0464257597923278,0.0992656052112579,0.3758416025701393,-0.715766681211724,-0.37484397439906825,0.891115512881818
15586334,0.0280998013913631,-0.0464257597923278,0.0992656052112579,0.37756108259671217,-0.7186075613150942,-0.368769724154051,0.8915942506115004
15587452,0.0280998013913631,-0.0464257597923278,0.0992656052112579,0.37936106262452907,-0.7215814414233037,-0.3624110988975629,0.8921526758611912
15588439,0.0280998013913631,-0.0464257597923278,0.0992656052112579,0.38095013264908656,-0.724206861518834,-0.3567975361711284,0.8926942722198367
15589411,0.0280998013913631,-0.0464257597923278,0.0992656052112579,0.38251505267327085,-0.7267923816129124,-0.35126928594813517,0.8932720989389051
15590364,0.0280998013913631,-0.0464257597923278,0.0992656052112579,0.3840493826969824,-0.7293273617051519,-0.34584909822950083,0.8938813834216985
15591336,0.0280998013913631,-0.0464257597923278,0.0992656052112579,0.3856143027211667,-0.7319128817992303,-0.3403208480065076,0.894546330043701
15592309,0.0280998013913631,-0.0464257597923278,0.0992656052112579,0.38718083274537585,-0.7345010618934056,-0.33478691028328494,0.8952558754149404
15593493,0.0280998013913631,-0.0464257597923278,0.0992656052112579,0.3890870727748349,-0.7376505020080032,-0.3280529100116553,0.8961784002531327
15594541,0.0280998013913631,-0.0464257597923278,0.0992656052112579,0.3907743528009101,-0.7404381821094376,-0.3220924097712264,0.8970489489234879
15595509,0.0280998013913631,-0.0464257597923278,0.0992656052112579,0.39233283282499487,-0.7430130622031289,-0.3165869095491508,0.8978979527846348
15596472,0.0280998013913631,-0.0464257597923278,0.0992656052112579,0.3938832628489552,-0.7455746422963363,-0.31110984682822235,0.8987852406338952
15597440,0.0280998013913631,-0.0464257597923278,0.0992656052112579,0.39544174287303996,-0.7481495223900276,-0.30560434660614677,0.899719898926029
15598544,0.0280998013913631,-0.0464257597923278,0.0992656052112579,0.3972191829005085,-0.7510861624968822,-0.2993253463528705,0.9008380352359167
15599563,0.0280998013913631,-0.0464257597923278,0.0992656052112579,0.39885977292586217,-0.7537967025955097,-0.29352978361909465,0.9019192431552872
15600538,0.0280998013913631,-0.0464257597923278,0.0992656052112579,0.4004295229501211,-0.7563902026898786,-0.2879844708954132,0.9029977835256342
15601507,0.0280998013913631,-0.0464257597923278,0.0992656052112579,0.4019896129742307,-0.7589677427836666,-0.2824732831731082,0.9041121828799238
15602751,0.0284052342176437,-0.0442877300083637,0.0027488935738801,0.40401422301994966,-0.7621243928007021,-0.2822773531729664,0.9076021080950551
15603797,0.0284052342176437,-0.0442877300083637,0.0027488935738801,0.4057165880583918,-0.7647786178150262,-0.2821126081728472,0.9105381967731453
15604901,0.0284052342176437,-0.0442877300083637,0.0027488935738801,0.4075133480989655,-0.7675800178301445,-0.2819387281727214,0.9136386917674871
15605938,0.0284052342176437,-0.0442877300083637,0.0027488935738801,0.40920106563707687,-0.7702114053443453,-0.28177540067260326,0.9165525066602769
15606908,0.0284052342176437,-0.0442877300083637,0.0027488935738801,0.4107797406727259,-0.7726727803576285,-0.28162262567249274,0.9192793504389234
15607878,0.0284052342176437,-0.0442877300083637,0.0027488935738801,0.4123584157083749,-0.7751341553709118,-0.2814698506723822,0.9220074287475296
15608853,0.0284052342176437,-0.0442877300083637,0.0027488935738801,0.41394522824420765,-0.7776082178842636,-0.2813162881722711,0.9247508023777615
15609816,0.0284052342176437,-0.0442877300083637,0.0027488935738801,0.41551251077959944,-0.7800518303974511,-0.2811646156721614,0.9274616142066768
15611145,0.0284052342176437,-0.0442877300083637,0.0027488935738801,0.4176754583284423,-0.7834241679156506,-0.2809552981720099,0.9312046471829524
15612331,0.0284052342176437,-0.0442877300083637,0.0027488935738801,0.41960567337202964,-0.7864336429318919,-0.28076850317187474,0.9345468143621783
15613565,0.0284052342176437,-0.0442877300083637,0.0027488935738801,0.42161400841738106,-0.7895649179487905,-0.2805741481717341,0.9380261107088362
15614747,0.0284052342176437,-0.0442877300083637,0.0027488935738801,0.4235377134608214,-0.792564242964977,-0.2803879831715994,0.9413605552907478
15615972,0.0284052342176437,-0.0442877300083637,0.0027488935738801,0.4255314010058421,-0.7956726804817522,-0.2801950456714598,0.944818104888895
15617134,0.0284052342176437,-0.0442877300083637,0.0027488935738801,0.4274225560485474,-0.7986212554976648,-0.2800120306713274,0.9480995140133869
15618410,0.0284052342176437,-0.0442877300083637,0.0027488935738801,0.42949924609544243,-0.8018591055151385,-0.279811060671182,0.9517047111200109
15619612,0.0284052342176437,-0.0442877300083637,0.0027488935738801,0.43145550113961784,-0.8049091805315989,-0.27962174567104503,0.9551025908350429
15620666,0.0284052342176437,-0.0442877300083637,0.0027488935738801,0.433170886178354,-0.8075837055460325,-0.27945574067092493,0.9580834875364134
15621790,0.0284052342176437,-0.0442877300083637,0.0027488935738801,0.43500019621966274,-0.8104358555614247,-0.27927871067079685,0.961263774894626
15622971,0.0284052342176437,-0.0442877300083637,0.0027488935738801,0.43692227376306636,-0.8134326430775974,-0.27909270317066226,0.9646069018504903
15624166,0.0284052342176437,-0.0442877300083637,0.0027488935738801,0.4388671363069845,-0.8164649555939619,-0.2789044906705261,0.967991271633959
15625346,0.0284052342176437,-0.0442877300083637,0.0027488935738801,0.44078758635035137,-0.819459205610121,-0.2787186406703916,0.9713347345775759
15626531,0.0284052342176437,-0.0442877300083637,0.0027488935738801,0.442716173893902,-0.8224661431263485,-0.27853200317025656,0.9746939232427905
15627689,0.0284052342176437,-0.0442877300083637,0.0027488935738801,0.4446008189364603,-0.8254045681422063,-0.2783496181701246,0.977978066852446
15628866,0.0284052342176437,-0.0442877300083637,0.0027488935738801,0.4465163864797169,-0.8283912056583242,-0.27816424066999046,0.9813175927264671
15630038,0.0284052342176437,-0.0442877300083637,0.0027488935738801,0.4484238165227898,-0.8313651556743737,-0.2779796506698569,0.9846444167723067
15631462,0.0284052342176437,-0.0442877300083637,0.0027488935738801,0.45074137657512403,-0.8349785556938741,-0.27775537066969463,0.9886885368817245
15632627,0.0284052342176437,-0.0442877300083637,0.0027488935738801,0.4526374141179396,-0.8379347432098277,-0.2775718831695619,0.9919986959990381
15633729,0.0284052342176437,-0.0442877300083637,0.0027488935738801,0.45443091915843986,-0.8407310682249187,-0.2773983181694363,0.9951311553202569
15634963,0.0284052342176437,-0.0442877300083637,0.0027488935738801,0.4564392542037913,-0.8438623432418173,-0.27720396316929563,0.9986403177903684
15636030,0.0284052342176437,-0.0442877300083637,0.0027488935738801,0.4581757967430052,-0.846569855756429,-0.27703591066917405,1.0016758343879757
15637141,0.0284052342176437,-0.0442877300083637,0.0027488935738801,0.4599839492838362,-0.8493890182716431,-0.27686092816904745,1.0048377538219029
15638171,0.0284052342176437,-0.0442877300083637,0.0027488935738801,0.4616602743216903,-0.8520026432857482,-0.2766987031689301,1.0077702542683267
15639129,0.0284052342176437,-0.0442877300083637,0.0027488935738801,0.4632194193568983,-0.8544335682988671,-0.2765478181688209,1.0104987129329814
15640580,0.0284052342176437,-0.0442877300083637,0.0027488935738801,0.4655809219102248,-0.8581154808187372,-0.27631928566865555,1.0146329981328144
15641733,0.0284052342176437,-0.0442877300083637,0.0027488935738801,0.4674574294525994,-0.8610412183345265,-0.27613768816852413,1.0179196681705756
15642709,0.0284052342176437,-0.0442877300083637,0.0027488935738801,0.46904586948846894,-0.863517818347892,-0.2759839681684129,1.0207027975735543
15643680,0.0284052342176437,-0.0442877300083637,0.0027488935738801,0.4706261720241547,-0.865981730861189,-0.27583103566830225,1.0234725752150364
15644638,0.0284052342176437,-0.0442877300083637,0.0027488935738801,0.4721853170593627,-0.8684126558743079,-0.27568015066819307,1.0262061488811873
15645602,0.0284052342176437,-0.0442877300083637,0.0027488935738801,0.4737542270947912,-0.8708588058875091,-0.2755283206680832,1.0289577168048136
15646841,0.0284052342176437,-0.0442877300083637,0.0027488935738801,0.4757706996403264,-0.8740027684044761,-0.275333178167942,1.03249549965847
15648280,0.0284052342176437,-0.0442877300083637,0.0027488935738801,0.47811267219321196,-0.8776542309241819,-0.275106535667778,1.0366061365523442
15649493,0.0284052342176437,-0.0442877300083637,0.0027488935738801,0.4800868297377916,-0.8807322184407929,-0.2749154881676397,1.040072656270597
15650665,0.0284052342176437,-0.0442877300083637,0.0027488935738801,0.48199425978086446,-0.8837061684568424,-0.2747308981675062,1.0434232722334218
15651847,0.0284052342176437,-0.0442877300083637,0.0027488935738801,0.4839179648243048,-0.8867054934730288,-0.2745447331673715,1.0468037253205054
15653052,0.0284052342176437,-0.0442877300083637,0.0027488935738801,0.4858791023685905,-0.8897631809895302,-0.2743549456672342,1.050251234979129
15654245,0.0284052342176437,-0.0442877300083637,0.0027488935738801,0.48782070991243515,-0.8927904185058673,-0.2741670481670982,1.0536656712145527
15655423,0.0284052342176437,-0.0442877300083637,0.0027488935738801,0.4897379049557285,-0.895779593521999,-0.27398151316696395,1.0570383934740133
15656609,0.0284052342176437,-0.0442877300083637,0.0027488935738801,0.49166811999931587,-0.8987890685382403,-0.27379471816682877,1.0604352302915783
15657787,0.0284052342176437,-0.0442877300083637,0.0027488935738801,0.4935853150426092,-0.901778243554372,-0.2736091831666945,1.0638103444161773
15658977,0.0284052342176437,-0.0442877300083637,0.0027488935738801,0.4955220400863436,-0.904797868570668,-0.2734217581665589,1.067221032879435
15660171,0.0284052342176437,-0.0442877300083637,0.0027488935738801,0.497465275130225,-0.9078276435870188,-0.2732337031664228,1.070644379318916
15661368,0.0284052342176437,-0.0442877300083637,0.0027488935738801,0.49941339267421664,-0.9108650311034107,-0.2730451756662864,1.0740775156496023
15662397,0.0284052342176437,-0.0442877300083637,0.0027488935738801,0.501088090212034,-0.9134761186175019,-0.2728831081661691,1.0770297508236573
15663373,0.0284052342176437,-0.0442877300083637,0.0027488935738801,0.5026765302479036,-0.9159527186308674,-0.2727293881660579,1.0798307256226694
15664340,0.0284052342176437,-0.0442877300083637,0.0027488935738801,0.5042503227834424,-0.9184064811441096,-0.2725770856659477,1.0826066322837917
15665312,0.0284052342176437,-0.0442877300083637,0.0027488935738801,0.5058322528191649,-0.9208729311574203,-0.2724239956658369,1.085397649133768
15666273,0.0284052342176437,-0.0442877300083637,0.0027488935738801,0.5073962803544831,-0.9233114686705803,-0.2722726381657274,1.0881578208099754
15667521,0.0284052342176437,-0.0442877300083637,0.0027488935738801,0.5094274004003491,-0.9264782686876706,-0.27207607816558516,1.091743399768978
15668703,0.0284052342176437,-0.0442877300083637,0.0027488935738801,0.5113511054437895,-0.9294775937038571,-0.27188991316545047,1.0951404819096104
15669887,0.0284052342176437,-0.0442877300083637,0.0027488935738801,0.5132780654873034,-0.9324819937200709,-0.27170343316531553,1.0985443990646742
15671070,0.0284052342176437,-0.0442877300083637,0.0027488935738801,0.5152033980307805,-0.9354838562362711,-0.2715171106651807,1.1019465177607828
15672271,0.0284052342176437,-0.0442877300083637,0.0027488935738801,0.5171580255749192,-0.9385313937527177,-0.2713279531650438,1.1054014920582929
15673468,0.0284052342176437,-0.0442877300083637,0.0027488935738801,0.5191061431189108,-0.9415687812691095,-0.2711394256649074,1.1088460424397442
15674522,0.0284052342176437,-0.0442877300083637,0.0027488935738801,0.5208215281576469,-0.9442433062835431,-0.2709734206647873,1.1118799756990498
15675495,0.0284052342176437,-0.0442877300083637,0.0027488935738801,0.5224050856934062,-0.9467122937968675,-0.27082017316467644,1.114681482297704
15676773,0.0284052342176437,-0.0442877300083637,0.0027488935738801,0.5244850307403747,-0.9499552188143686,-0.2706188881645308,1.1183622167503664
15677964,0.0284052342176437,-0.0442877300083637,0.0027488935738801,0.5264233832841458,-0.9529773813306783,-0.27043130566439505,1.1217934564257153
15679105,0.0284052342176437,-0.0442877300083637,0.0027488935738801,0.5282803608260794,-0.9558726688463033,-0.27025159816426503,1.1250816081477053
15680288,0.0198531206697225,-0.0558941699564456,-0.0216857157647609,0.5296260233551091,-0.9596612263911286,-0.27172147565130067,1.1292855946940934
15681511,0.0198531206697225,-0.0558941699564456,-0.0216857157647609,0.5310171858851204,-0.9635778839374696,-0.2732410531378979,1.1336323315955097
15682691,0.0198531206697225,-0.0558941699564456,-0.0216857157647609,0.5323594359140764,-0.9673568339821813,-0.27470720312496644,1.137826814900899
15683872,0.0198531206697225,-0.0558941699564456,-0.0216857157647609,0.533702823443057,-0.9711389865269309,-0.276174595612024,1.1420254122238742
15685067,0.0198531206697225,-0.0558941699564456,-0.0216857157647609,0.5350621359723812,-0.974965974072211,-0.2776593830989281,1.1462743445496717
15686283,0.0198531206697225,-0.0558941699564456,-0.0216857157647609,0.5364453360022207,-0.9788602141182867,-0.2791702630856021,1.15059851950779
15687508,0.0198531206697225,-0.0558941699564456,-0.0216857157647609,0.5378387735322809,-0.9827832766647036,-0.2806923255721775,1.1549552791522435
15688731,0.0198531206697225,-0.0558941699564456,-0.0216857157647609,0.5392299360622922,-0.9866999342110445,-0.28221190305877475,1.1593055000067405
15689972,0.0198531206697225,-0.0558941699564456,-0.0216857157647609,0.5406415735927451,-0.9906742367580675,-0.2837538455451748,1.1637203269405816
15691173,0.0198531206697225,-0.0558941699564456,-0.0216857157647609,0.5420077111222165,-0.9945204393035749,-0.2852460880320132,1.1679934048812461
15692371,0.0198531206697225,-0.0558941699564456,-0.0216857157647609,0.5433704361516142,-0.9983570343489686,-0.2867346030188844,1.1722563420541006
15693562,0.0198531206697225,-0.0558941699564456,-0.0216857157647609,0.5447251986808401,-1.002171211894097,-0.2882144205058324,1.1764948925578371
15694759,0.0198531206697225,-0.0558941699564456,-0.0216857157647609,0.5460867862102133,-1.0060046044394528,-0.28970169299271464,1.1807553146819303
15695899,0.0198531206697225,-0.0558941699564456,-0.0216857157647609,0.5473835362381878,-1.0096554544826488,-0.29111814298022154,1.1848133379074697
15697169,0.0198531206697225,-0.0558941699564456,-0.0216857157647609,0.5488281612693524,-1.0137226295307706,-0.29269611796630374,1.1893346617742302
15698368,0.0198531206697225,-0.0558941699564456,-0.0216857157647609,0.5501920237987747,-1.0175624270762023,-0.29418587545316405,1.193603738836783
15699562,0.0198531206697225,-0.0558941699564456,-0.0216857157647609,0.5515501988280743,-1.0213862121214443,-0.29566942044007916,1.1978555097850712
15700734,0.0198531206697225,-0.0558941699564456,-0.0216857157647609,0.5528833488568341,-1.025139542165853,-0.29712563042723533,1.2020294166999177
15701922,0.0198531206697225,-0.0558941699564456,-0.0216857157647609,0.5542346988859865,-1.0289441122108678,-0.2986017204142162,1.2062607823091078
15702965,0.0198531206697225,-0.0558941699564456,-0.0216857157647609,0.5554211114115808,-1.0322843197503884,-0.29989764790278606,1.2099760853098795
15703944,0.0198531206697225,-0.0558941699564456,-0.0216857157647609,0.5565347239356045,-1.035419567287484,-0.3011140553920573,1.2134637421952628
15705206,0.0198531206697225,-0.0558941699564456,-0.0216857157647609,0.5579702489665728,-1.0394611223353027,-0.3026820903782272,1.2179600450811676
15706390,0.0198531206697225,-0.0558941699564456,-0.0216857157647609,0.559317048995627,-1.043252882380166,-0.3041532103652519,1.2221789203169844
15707574,0.0198531206697225,-0.0558941699564456,-0.0216857157647609,0.5606638490246811,-1.047044642425029,-0.3056243303522766,1.2263982494024546
15708618,0.0198531206697225,-0.0558941699564456,-0.0216857157647609,0.5618513990502999,-1.0503880524645874,-0.30692150034083554,1.230119044136216
15709725,0.0198531206697225,-0.0558941699564456,-0.0216857157647609,0.5631106115774647,-1.053933220006533,-0.30829694782870404,1.2340647475497304
15710871,0.0198531206697225,-0.0558941699564456,-0.0216857157647609,0.5644141866055864,-1.0576032850499564,-0.30972085281614514,1.238149865427956
15712009,0.0198531206697225,-0.0558941699564456,-0.0216857157647609,0.5657086616335119,-1.0612477300930767,-0.3111348178036739,1.2422068705834035
15713196,0.0198531206697225,-0.0558941699564456,-0.0216857157647609,0.5670588741626397,-1.0650490976380536,-0.3126096652906657,1.246438987668219
15714338,0.0198531206697225,-0.0558941699564456,-0.0216857157647609,0.5683578991906633,-1.0687063526813254,-0.31402860027815066,1.2505110681743286
15715535,0.0198531206697225,-0.0558941699564456,-0.0216857157647609,0.5697194867200365,-1.0725397452266812,-0.3155158727650329,1.2547796876767396
15716728,0.0198531206697225,-0.0558941699564456,-0.0216857157647609,0.5710765242493115,-1.0763603277718854,-0.31699817525195895,1.2590344692910305
15717897,0.0198531206697225,-0.0558941699564456,-0.0216857157647609,0.5724062617779977,-1.0801040503161803,-0.318450657739148,1.263204064847234
15719056,0.0198531206697225,-0.0558941699564456,-0.0216857157647609,0.5737246243064384,-1.0838157478600963,-0.31989071522644663,1.2673383879348055
15720253,0.0198531206697225,-0.0558941699564456,-0.0216857157647609,0.5750862118358117,-1.087649140405452,-0.32137798771332887,1.2716086719801227
15721435,0.0198531206697225,-0.0558941699564456,-0.0216857157647609,0.5764307368648168,-1.0914344954502395,-0.32284662270037545,1.2758258478531752
15722632,0.0198531206697225,-0.0558941699564456,-0.0216857157647609,0.57779232439419,-1.0952678879955953,-0.3243338951872577,1.2800969463952767
15723893,0.0198531206697225,-0.0558941699564456,-0.0216857157647609,0.5792267119251338,-1.0993062405433762,-0.32590068767343855,1.2845968443567162
15725071,0.0198531206697225,-0.0558941699564456,-0.0216857157647609,0.5805666869540408,-1.1030787855880122,-0.327364352660529,1.288800956163504
15726256,0.0198531206697225,-0.0558941699564456,-0.0216857157647609,0.5819146244831196,-1.1068737481329134,-0.3288367151475427,1.2930304365026217
15727451,0.0198531206697225,-0.0558941699564456,-0.0216857157647609,0.5832739370124438,-1.1107007356781935,-0.3303215026344468,1.2972959974257052
15728639,0.0198531206697225,-0.0558941699564456,-0.0216857157647609,0.5846252870415962,-1.1145053057232084,-0.33179759262142766,1.3015369549893794
15729824,0.0198531206697225,-0.0558941699564456,-0.0216857157647609,0.585973224570675,-1.1183002682681096,-0.3332699551084414,1.3057675799698287
15731006,0.0198531206697225,-0.0558941699564456,-0.0216857157647609,0.5873177495996802,-1.122085623312897,-0.33473859009548795,1.3099878658748867
15732192,0.0198531206697225,-0.0558941699564456,-0.0216857157647609,0.5886668246287835,-1.125883788357836,-0.33621219508249073,1.3142228028107388
15733493,0.0198531206697225,-0.0558941699564456,-0.0216857157647609,0.5901467121607088,-1.1300502409071327,-0.3378286875682332,1.3188687997645703
15734658,0.0198531206697225,-0.0558941699564456,-0.0216857157647609,0.5914718996892968,-1.133781153451276,-0.3392762000554661,1.32302949776921
15735707,0.0198531206697225,-0.0558941699564456,-0.0216857157647609,0.5926651372150382,-1.137140575991024,-0.34057958254397025,1.3267762081380352
15736751,0.0198531206697225,-0.0558941699564456,-0.0216857157647609,0.593852687240657,-1.1404839860305824,-0.3418767525325292,1.330505336500889
15737986,0.0198531206697225,-0.0558941699564456,-0.0216857157647609,0.5952574997709627,-1.1444390735773782,-0.343411240018995,1.3349170625681614
15739179,0.0198531206697225,-0.0558941699564456,-0.0216857157647609,0.5966145373002377,-1.1482596561225824,-0.344893542505921,1.3391791141064782
15740236,0.0198531206697225,-0.0558941699564456,-0.0216857157647609,0.5978168748261755,-1.1516446986626334,-0.3462068649943375,1.3429555916536817
15741215,0.0198531206697225,-0.0558941699564456,-0.0216857157647609,0.5989304873501993,-1.154779946199729,-0.34742327248360877,1.346453631985081
15742189,0.0198531206697225,-0.0558941699564456,-0.0216857157647609,0.6000384123741003,-1.157899181236635,-0.34863346747293483,1.3499340372311168
15743165,0.0198531206697225,-0.0558941699564456,-0.0216857157647609,0.6011486123980504,-1.161024821273617,-0.34984614746223897,1.3534218177256143
15744199,0.0198531206697225,-0.0558941699564456,-0.0216857157647609,0.6023247874234238,-1.1643362063127964,-0.35113089245090745,1.3571171115673542
15745179,0.0198531206697225,-0.0558941699564456,-0.0216857157647609,0.603439537447472,-1.1674746563499299,-0.3523485424401677,1.3606196543979203
15746154,0.0198531206697225,-0.0558941699564456,-0.0216857157647609,0.6045485999713975,-1.170597093886874,-0.3535599799294828,1.3641045507407077
15747113,0.0198531206697225,-0.0558941699564456,-0.0216857157647609,0.6056394624949305,-1.1736682914232117,-0.3547515374189732,1.3675324749798647
15748087,0.0198531206697225,-0.0558941699564456,-0.0216857157647609,0.6067473875188315,-1.1767875264601177,-0.35596173240829926,1.3710142339276303
15749054,0.0198531206697225,-0.0558941699564456,-0.0216857157647609,0.6078473500425607,-1.1798843439967586,-0.357163229897702,1.374471185203016
15750020,0.0198531206697225,-0.0558941699564456,-0.0216857157647609,0.6089461750662655,-1.1829779590333616,-0.3583634848871157,1.3779247740667886
15751082,0.0198531206697225,-0.0558941699564456,-0.0216857157647609,0.6101542000923259,-1.1863790140736021,-0.3596830198754774,1.3817218199447028
15752282,0.0198531206697225,-0.0558941699564456,-0.0216857157647609,0.6115192001217727,-1.1902220141190716,-0.3611740198623267,1.3860125712397937
15753454,0.0198531206697225,-0.0558941699564456,-0.0216857157647609,0.6128523501505325,-1.1939753441634802,-0.3626302298494829,1.3902035135749085
15754665,0.0198531206697225,-0.0558941699564456,-0.0216857157647609,0.6142298626802493,-1.1978535717093666,-0.3641348973362117,1.3945342329692512
15755868,0.0198531206697225,-0.0558941699564456,-0.0216857157647609,0.6155982752097697,-1.2017061792549497,-0.36562962482302813,1.3988366596029005
15757085,0.0198531206697225,-0.0558941699564456,-0.0216857157647609,0.6169826127396337,-1.2056036218010633,-0.3671417473096912,1.4031894739986042
15758285,0.0253509078174829,-0.0482583530247211,0.0119118718430399,0.6187256127693541,-1.208921621746546,-0.3663227473304429,1.4065934830770526
15759496,0.0253509078174829,-0.0482583530247211,0.0119118718430399,0.6204845902993469,-1.2122700366915289,-0.36549623985138485,1.4100309464705127
15760686,0.0253509078174829,-0.0482583530247211,0.0119118718430399,0.6222130653288196,-1.2155603866374658,-0.36468406487196364,1.4134109874341751
15761896,0.0253509078174829,-0.0482583530247211,0.0119118718430399,0.6239705903587877,-1.2189060365824942,-0.3638582398928883,1.416850042307897
15763101,0.0253509078174829,-0.0482583530247211,0.0119118718430399,0.6257208528886319,-1.2222378615277498,-0.3630358274137265,1.4202770813744665
15764158,0.0253509078174829,-0.0482583530247211,0.0119118718430399,0.6272561454148106,-1.225160466479729,-0.3623144249320053,1.4232849971454358
15765134,0.0253509078174829,-0.0482583530247211,0.0119118718430399,0.6286737854389831,-1.2278591064353883,-0.36164830494888334,1.4260638871477291
15766108,0.0253509078174829,-0.0482583530247211,0.0119118718430399,0.6300885204631061,-1.2305522163911384,-0.3609835499657268,1.4288384878041283
15767082,0.0253509078174829,-0.0482583530247211,0.0119118718430399,0.6315032554872292,-1.2332453263468885,-0.36031879498257025,1.4316144839533804
15768050,0.0253509078174829,-0.0482583530247211,0.0119118718430399,0.6329092755112036,-1.2359218463029114,-0.35965813499931,1.434374754123934
15769023,0.0253509078174829,-0.0482583530247211,0.0119118718430399,0.6343225580353018,-1.238612191258707,-0.3589940625161362,1.4371506549032997
15770244,0.0253509078174829,-0.0482583530247211,0.0119118718430399,0.6360960605655422,-1.2419882562032356,-0.3581607300372511,1.4406360176514303
15771421,0.0253509078174829,-0.0482583530247211,0.0119118718430399,0.637805653094693,-1.2452426611497631,-0.357357427557605,1.443997807234305
15772649,0.0253509078174829,-0.0482583530247211,0.0119118718430399,0.6395893231251067,-1.2486380810939737,-0.3565193175788409,1.4475073691075135
15773866,0.0253509078174829,-0.0482583530247211,0.0119118718430399,0.6413570156552482,-1.252003086038684,-0.3556887150998866,1.450987598510064
15774922,0.0253509078174829,-0.0482583530247211,0.0119118718430399,0.6428908556814021,-1.2549229259907086,-0.3549679951181481,1.4540091059047893
15775890,0.0253509078174829,-0.0482583530247211,0.0119118718430399,0.6442968757053765,-1.2575994459467315,-0.3543073351348878,1.4567801887105758
15777026,0.0253509078174829,-0.0482583530247211,0.0119118718430399,0.6459469157335118,-1.2607404858951217,-0.35353201515453275,1.4600338614086759
15778027,0.0253509078174829,-0.0482583530247211,0.0119118718430399,0.6474008682583036,-1.2635082508496451,-0.35284883267184314,1.4629023490666142
15778991,0.0253509078174829,-0.0482583530247211,0.0119118718430399,0.6488010782821789,-1.2661737108058495,-0.35219090268851366,1.4656661069467776
15779956,0.0253509078174829,-0.0482583530247211,0.0119118718430399,0.6502027408060791,-1.2688419357620084,-0.3515322902052015,1.4684340002727165
15780921,0.0253509078174829,-0.0482583530247211,0.0119118718430399,0.6516044033299793,-1.2715101607181674,-0.3508736777218893,1.4712031555725544
15781887,0.0253509078174829,-0.0482583530247211,0.0119118718430399,0.6530075183539041,-1.2741811506742808,-0.35021438273859445,1.4739764372734503
15782997,0.0253509078174829,-0.0482583530247211,0.0119118718430399,0.6546197933813955,-1.2772503006238523,-0.3494568077577898,1.4771646708538242
15784350,0.0253509078174829,-0.0482583530247211,0.0119118718430399,0.6565850259149052,-1.280991345562384,-0.3485333852811874,1.481053086258885
15785562,0.0253509078174829,-0.0482583530247211,0.0119118718430399,0.6583454559449228,-1.2843425255073215,-0.3477061953021466,1.4845383324257233
15786769,0.0253509078174829,-0.0482583530247211,0.0119118718430399,0.6600986234748165,-1.2876798804524863,-0.3468824178230193,1.4880111152240163
15787965,0.0253509078174829,-0.0482583530247211,0.0119118718430399,0.6618358135044378,-1.2909868203981507,-0.3460661478437019,1.491454120367833
15789154,0.0253509078174829,-0.0482583530247211,0.0119118718430399,0.6635628360338857,-1.294274405344133,-0.34525465536426336,1.4948788080459698
15790371,0.0253509078174829,-0.0482583530247211,0.0119118718430399,0.6653305285640271,-1.2976394102888433,-0.34442405288530903,1.498386024888115
15791581,0.0253509078174829,-0.0482583530247211,0.0119118718430399,0.6670880535939951,-1.3009850602338717,-0.3435982279062337,1.5018749416711965
15792783,0.0253509078174829,-0.0482583530247211,0.0119118718430399,0.668833958623765,-1.3043085901792635,-0.34277786292701995,1.5053426274229296
15793984,0.0253509078174829,-0.0482583530247211,0.0119118718430399,0.6705784111535101,-1.3076293551247007,-0.341958180447789,1.508809243431445
15795190,0.0253509078174829,-0.0482583530247211,0.0119118718430399,0.6723301261833791,-1.3109639450699109,-0.34113508546864446,1.5122921048477116
15796419,0.0253509078174829,-0.0482583530247211,0.0119118718430399,0.6741152487138177,-1.314362130014076,-0.34029629298989766,1.5158432453213286
15797655,0.0253509078174829,-0.0482583530247211,0.0119118718430399,0.6759105387444296,-1.3177796699579232,-0.33945272301127194,1.5194164886889854
15798877,0.0253509078174829,-0.0482583530247211,0.0119118718430399,0.6776854937746949,-1.3211584999024064,-0.3386187080324041,1.522951095658217
15800067,0.0253509078174829,-0.0482583530247211,0.0119118718430399,0.6794139688041676,-1.3244488498483433,-0.3378065330529829,1.5263948868638502
15801286,0.0253509078174829,-0.0482583530247211,0.0119118718430399,0.6811845663343585,-1.327819384792963,-0.3369745655740632,1.5299243739113118
15802484,0.0253509078174829,-0.0482583530247211,0.0119118718430399,0.6829246613640294,-1.3311318547385365,-0.3361569305947803,1.5333947925390037
15803670,0.0253509078174829,-0.0482583530247211,0.0119118718430399,0.6846473263934031,-1.3344111446846552,-0.33534748561528993,1.5368321315956222
15804728,0.0253509078174829,-0.0482583530247211,0.0119118718430399,0.6861840714196066,-1.337336514636589,-0.33462540063358603,1.539899896746381
15805693,0.0253509078174829,-0.0482583530247211,0.0119118718430399,0.6875857339435067,-1.340004739592748,-0.33396678815027386,1.5426991473521559
15806659,0.0253509078174829,-0.0482583530247211,0.0119118718430399,0.6889888489674316,-1.3426757295488614,-0.333307493166979,1.5455023887792245
15807857,0.0253509078174829,-0.0482583530247211,0.0119118718430399,0.6907289439971025,-1.345988199494435,-0.3324898581876961,1.5489803785236589
15809057,0.0253509078174829,-0.0482583530247211,0.0119118718430399,0.6924719440268229,-1.3493061994399176,-0.3316708582084478,1.5524658357902794
15810274,0.0253509078174829,-0.0482583530247211,0.0119118718430399,0.6942396365569643,-1.3526712043846278,-0.3308402557294935,1.5560023569870525
15811344,0.0253509078174829,-0.0482583530247211,0.0119118718430399,0.695793811583465,-1.3556297543360165,-0.3301099807479971,1.559113099960493
15812507,0.0253509078174829,-0.0482583530247211,0.0119118718430399,0.697483069112269,-1.35884544928318,-0.32931623326810894,1.5624956858275716
15813632,0.0253509078174829,-0.0482583530247211,0.0119118718430399,0.6991171316401318,-1.36195607423207,-0.3285484207875637,1.5657691964949239
15814662,0.0253509078174829,-0.0482583530247211,0.0119118718430399,0.7006132066656418,-1.364804024185276,-0.32784544580537556,1.5687675181880716
15815891,0.0253509078174829,-0.0482583530247211,0.0119118718430399,0.7023983291960804,-1.368202209129441,-0.32700665332662876,1.5723466695496924
15817130,0.0253509078174829,-0.0482583530247211,0.0119118718430399,0.7041979767267667,-1.3716280440731519,-0.3261610358480549,1.5759566310718987
15818324,0.0253509078174829,-0.0482583530247211,0.0119118718430399,0.7059322617563384,-1.3749294540189072,-0.32534613086870284,1.5794370726902622
15819549,0.0253509078174829,-0.0482583530247211,0.0119118718430399,0.707711574286678,-1.378316578963254,-0.3245100683898869,1.5830094910362051
15820747,0.0253509078174829,-0.0482583530247211,0.0119118718430399,0.7094516693163488,-1.3816290489088277,-0.323692433410604,1.586504740406326
15821944,0.0253509078174829,-0.0482583530247211,0.0119118718430399,0.7111903118459949,-1.3849387538544466,-0.3228754809313038,1.589998612508241
15823209,0.0253509078174829,-0.0482583530247211,0.0119118718430399,0.7130277243773251,-1.3884364787969763,-0.32201211845317956,1.5936926290271778
15824408,0.0253509078174829,-0.0482583530247211,0.0119118718430399,0.7147692719070207,-1.3917517137425044,-0.321193800973914,1.5971954803817099
15825598,0.0253509078174829,-0.0482583530247211,0.0119118718430399,0.7164977469364934,-1.3950420636884413,-0.32038162599449277,1.600673535453139
15826831,0.0253509078174829,-0.0482583530247211,0.0119118718430399,0.718288679467031,-1.3984513086324248,-0.31954010351581513,1.604278830945896
15828043,0.0253509078174829,-0.0482583530247211,0.0119118718430399,0.7200491094970486,-1.4018024885773623,-0.31871291353677433,1.6078242622638452
15829282,0.0253509078174829,-0.0482583530247211,0.0119118718430399,0.7218487570277349,-1.4052283235210732,-0.31786729605820047,1.6114502434613622
15830450,0.0253509078174829,-0.0482583530247211,0.0119118718430399,0.7235452770566627,-1.4084578434680097,-0.3170701360783988,1.6148698820556204
15831629,0.0253509078174829,-0.0482583530247211,0.0119118718430399,0.7252577745858629,-1.4117177784144466,-0.31626546859878735,1.6183231358775876
15832845,0.0253509078174829,-0.0482583530247211,0.0119118718430399,0.7270240146159795,-1.4150800183592023,-0.31543554861981576,1.6218862356900685
15834053,0.0253509078174829,-0.0482583530247211,0.0119118718430399,0.7287786346458981,-1.4184201383043216,-0.3146110886407058,1.6254273666206314
15835231,0.0345138870179653,-0.0390953756868839,0.0094684110954403,0.7311081297174271,-1.4210588583341683,-0.3139720236472277,1.6286515305067746
15836409,0.0345138870179653,-0.0390953756868839,0.0094684110954403,0.7334376247889561,-1.4236975783640151,-0.3133329586537496,1.6318771666624725
15837631,0.0345138870179653,-0.0390953756868839,0.0094684110954403,0.7358541298631569,-1.4264348583949766,-0.3126700236605151,1.6352248314457642
15838844,0.0345138870179653,-0.0390953756868839,0.0094684110954403,0.7382528374368112,-1.4291519784257103,-0.3120119711672308,1.6385493888111171
15840063,0.0345138870179653,-0.0390953756868839,0.0094684110954403,0.7406634100108299,-1.4318825384565959,-0.3113506636739797,1.6418919351272796
15841285,0.0345138870179653,-0.0390953756868839,0.0094684110954403,0.7430799150850307,-1.4346198184875574,-0.3106877286807452,1.6452442519434156
15842511,0.0345138870179653,-0.0390953756868839,0.0094684110954403,0.7455043301594744,-1.4373660585186203,-0.31002262368753286,1.6486090863712908
15843569,0.0345138870179653,-0.0390953756868839,0.0094684110954403,0.747596525223717,-1.4397359785454267,-0.3094486586933904,1.6515140704250362
15844545,0.0345138870179653,-0.0390953756868839,0.0094684110954403,0.7495265652829805,-1.4419222185701555,-0.30891917869879393,1.6541949145850734
15845555,0.0345138870179653,-0.0390953756868839,0.0094684110954403,0.7515238403443084,-1.4441846185957457,-0.30837125370438573,1.6569701642774417
15846540,0.0345138870179653,-0.0390953756868839,0.0094684110954403,0.7534716779041184,-1.4463910186207025,-0.3078368912098391,1.6596777095990713
15847509,0.0345138870179653,-0.0390953756868839,0.0094684110954403,0.7553878754629568,-1.448561578645254,-0.3073112087152039,1.6623422236488097
15848552,0.0345138870179653,-0.0390953756868839,0.0094684110954403,0.7574504080262886,-1.4508978986716803,-0.3067453812209784,1.665211266443238
15849558,0.0345138870179653,-0.0390953756868839,0.0094684110954403,0.7594397730873736,-1.453151338697169,-0.30619962622654806,1.6679795541929323
15850529,0.0345138870179653,-0.0390953756868839,0.0094684110954403,0.7613599256463335,-1.4553263787217712,-0.30567285873192396,1.6706524777909262
15851499,0.0345138870179653,-0.0390953756868839,0.0094684110954403,0.7632781007052326,-1.4574991787463478,-0.3051466337372943,1.673323573952052
15852803,0.0345138870179653,-0.0390953756868839,0.0094684110954403,0.7658567607844124,-1.4604201387793871,-0.30443921374451377,1.6769158579538137
15854009,0.0345138870179653,-0.0390953756868839,0.0094684110954403,0.7682416258576417,-1.4631215788099434,-0.3037849587511907,1.6802396410164702
15855208,0.0345138870179653,-0.0390953756868839,0.0094684110954403,0.7706126484304459,-1.4658073388403223,-0.30313450125782887,1.6835455248884617
15856387,0.0345138870179653,-0.0390953756868839,0.0094684110954403,0.7729441210020357,-1.4684482988701943,-0.30249489376435634,1.6867976112740635
15857606,0.0345138870179653,-0.0390953756868839,0.0094684110954403,0.7753546935760544,-1.47117885890108,-0.30183358627110524,1.6901614270622725
15858797,0.0345138870179653,-0.0390953756868839,0.0094684110954403,0.7777098961483728,-1.473846698931256,-0.30118746877769914,1.6934493396220598
15860003,0.0345138870179653,-0.0390953756868839,0.0094684110954403,0.780094761221602,-1.4765481389618123,-0.3005332137843761,1.6967800257383232
15861198,0.0345138870179653,-0.0390953756868839,0.0094684110954403,0.7824578737941633,-1.4792249389920897,-0.2998849262909921,1.7000816784540642
15862392,0.0345138870179653,-0.0390953756868839,0.0094684110954403,0.7848190088666639,-1.481899499022342,-0.29923718129760263,1.7033818986216962
15863611,0.0345138870179653,-0.0390953756868839,0.0094684110954403,0.7872295814406826,-1.4846300590532275,-0.2985758738043515,1.70675258270134
15864810,0.0345138870179653,-0.0390953756868839,0.0094684110954403,0.7896006040134868,-1.4873158190836064,-0.2979254163109897,1.7100693007123655
15865868,0.0345138870179653,-0.0390953756868839,0.0094684110954403,0.7916927990777294,-1.4896857391104128,-0.2973514513168472,1.7129970738505955
15866833,0.0345138870179653,-0.0390953756868839,0.0094684110954403,0.7936010866363249,-1.4918473391348628,-0.2968279388221899,1.7156683809115196
15867795,0.0345138870179653,-0.0390953756868839,0.0094684110954403,0.7955034416947383,-1.4940022191592368,-0.29630605382751596,1.718332224610751
15868757,0.0345138870179653,-0.0390953756868839,0.0094684110954403,0.7974057967531517,-1.4961570991836108,-0.29578416883284203,1.7209969043159785
15869908,0.0345138870179653,-0.0390953756868839,0.0094684110954403,0.7996818993230413,-1.4987353392127736,-0.29515975133921446,1.7241861952587259
15870967,0.0345138870179653,-0.0390953756868839,0.0094684110954403,0.8017760718873447,-1.5011074992396052,-0.29458524384507756,1.7271216111252112
15872114,0.0345138870179653,-0.0390953756868839,0.0094684110954403,0.8040442644569914,-1.5036767792686665,-0.29396299635142786,1.7303020773673836
15873340,0.0345138870179653,-0.0390953756868839,0.0094684110954403,0.8064686795314351,-1.5064230192997294,-0.29329789135821555,1.7337028860841368
15874554,0.0345138870179653,-0.0390953756868839,0.0094684110954403,0.8088693646051501,-1.5091423793304883,-0.2926392963649368,1.7370717106282607
15875754,0.0345138870179653,-0.0390953756868839,0.0094684110954403,0.811242364678015,-1.5118303793608925,-0.2919882963715805,1.7404029520271607
15876945,0.0345138870179653,-0.0390953756868839,0.0094684110954403,0.8135975672503335,-1.5144982193910685,-0.29134217887817443,1.7437104470547455
15877999,0.0345138870179653,-0.0390953756868839,0.0094684110954403,0.8156818523143332,-1.5168591794177735,-0.29077038388400983,1.7466385059659475
15878972,0.0345138870179653,-0.0390953756868839,0.0094684110954403,0.8176059598734146,-1.5190386994424263,-0.29024253138939676,1.7493423916007955
15880116,0.0345138870179653,-0.0390953756868839,0.0094684110954403,0.8198682199428792,-1.5216012594714117,-0.28962191139573046,1.752522508402619
15881111,0.0345138870179653,-0.0390953756868839,0.0094684110954403,0.8218358325032964,-1.5238300594966219,-0.2890821239012392,1.7552893380212609
15882088,0.0345138870179653,-0.0390953756868839,0.0094684110954403,0.8237678500626205,-1.526018539521376,-0.28855210140664833,1.7580069308697102
15883056,0.0345138870179653,-0.0390953756868839,0.0094684110954403,0.8256820701213983,-1.5281868595459018,-0.2880269614120076,1.760700283724904
15884022,0.0345138870179653,-0.0390953756868839,0.0094684110954403,0.8275923351800545,-1.5303506995703773,-0.2875029064173558,1.7633888561865037
15884975,0.0345138870179653,-0.0390953756868839,0.0094684110954403,0.8294768927379214,-1.5324854195945232,-0.286985903922632,1.7660420113650324
15886252,0.0345138870179653,-0.0390953756868839,0.0094684110954403,0.8320021603154618,-1.5353458996268783,-0.28629313142970203,1.7695983678152758
15887457,0.0345138870179653,-0.0390953756868839,0.0094684110954403,0.8343850478886303,-1.538045099657409,-0.2856394189363734,1.7729554462452208
15888645,0.0345138870179653,-0.0390953756868839,0.0094684110954403,0.8367343179607666,-1.5407062196875092,-0.2849949289429507,1.776266332440111
15889828,0.0345138870179653,-0.0390953756868839,0.0094684110954403,0.8390737005325992,-1.5433561397174826,-0.2843531514495003,1.7795644308842493
15891027,0.0345138870179653,-0.0390953756868839,0.0094684110954403,0.8414447231054034,-1.5460418997478615,-0.28370269395613845,1.782908297242423
15892223,0.0345138870179653,-0.0390953756868839,0.0094684110954403,0.8438098131780255,-1.5487209397781643,-0.28305386396276,1.78624495521391
15893467,0.0345138870179653,-0.0390953756868839,0.0094684110954403,0.8462698232535621,-1.5515074998096834,-0.28237899396964733,1.789716746289932
15894651,0.0345138870179653,-0.0390953756868839,0.0094684110954403,0.8486111833254556,-1.554159659839682,-0.28173667397620245,1.7930222369511202
15895847,0.0345138870179653,-0.0390953756868839,0.0094684110954403,0.8509762733980777,-1.5568386998699848,-0.281087843982824,1.7963623608098276
15897063,0.0345138870179653,-0.0390953756868839,0.0094684110954403,0.8533809134719141,-1.5595625399007944,-0.2804281639895563,1.7997594990716201
15898270,0.0345138870179653,-0.0390953756868839,0.0094684110954403,0.8557677560452042,-1.562266219931376,-0.27977336649623874,1.803132643713699
15899481,0.0345138870179653,-0.0390953756868839,0.0094684110954403,0.858162508618737,-1.5649788599620589,-0.2791163990029434,1.8065181115946
15900678,0.0345138870179653,-0.0390953756868839,0.0094684110954403,0.8605295761914198,-1.567660139992387,-0.2784670265095705,1.8098655615471049
15901872,0.0345138870179653,-0.0390953756868839,0.0094684110954403,0.8628907112639204,-1.5703347000226393,-0.277819281516181,1.8132057254660636
15903157,0.0345138870179653,-0.0390953756868839,0.0094684110954403,0.8654317988419465,-1.5732131000551972,-0.27712216902329534,1.8168016824068243
15904363,0.0345138870179653,-0.0390953756868839,0.0094684110954403,0.8678166639151758,-1.5759145400857535,-0.2764679140299723,1.8201777131122778
15905550,0.0345138870179653,-0.0390953756868839,0.0094684110954403,0.8701639564872513,-1.5785734201158284,-0.275823966536544,1.823501635420622
15906760,0.0345138870179653,-0.0390953756868839,0.0094684110954403,0.8725567315607234,-1.5812838201464858,-0.2751675415432431,1.8268910601259039
15907801,0.0345138870179653,-0.0390953756868839,0.0094684110954403,0.8746153091239338,-1.5836156601728615,-0.2746027990490065,1.8298079667943932
15908763,0.0345138870179653,-0.0390953756868839,0.0094684110954403,0.8765176641823472,-1.5857705401972355,-0.27408091405433255,1.832504234437118
15910024,0.0345138870179653,-0.0390953756868839,0.0094684110954403,0.8790112917589161,-1.5885951802291853,-0.273396821561314,1.836039574662514
15911349,0.0345138870179653,-0.0390953756868839,0.0094684110954403,0.8816314793393711,-1.5915631802627566,-0.27267800906864975,1.8397556138682851
15912531,0.0329867228865623,-0.0427605658769607,0.0009162978385575,0.8838654593409877,-1.5944590802087877,-0.27261595406991884,1.8433223719929621
15913576,0.0329867228865623,-0.0427605658769607,0.0009162978385575,0.8858405093424169,-1.597019330161074,-0.27256109157104086,1.8464760213819607
15914540,0.0329867228865623,-0.0427605658769607,0.0009162978385575,0.8876624693437353,-1.5993811301170586,-0.2725104815720759,1.849385471291094
15915510,0.0329867228865623,-0.0427605658769607,0.0009162978385575,0.8894957693450619,-1.6017576300727694,-0.2724595565731174,1.8523132670115814
15916473,0.0329867228865623,-0.0427605658769607,0.0009162978385575,0.8913158393463789,-1.6041169800287998,-0.27240899907415134,1.8552201685684202
15917442,0.0329867228865623,-0.0427605658769607,0.0009162978385575,0.8931472493477042,-1.606491029984556,-0.27235812657519176,1.8581454161474442
15918708,0.0329867228865623,-0.0427605658769607,0.0009162978385575,0.8955399893494356,-1.6095927299267518,-0.27229166157655105,1.8619676092030064
15919917,0.0329867228865623,-0.0427605658769607,0.0009162978385575,0.8978249993510891,-1.61255477987155,-0.2722281890778491,1.8656180837660667
15921110,0.0329867228865623,-0.0427605658769607,0.0009162978385575,0.9000797693527206,-1.6154776298170788,-0.27216555657913005,1.869220600631579
15922279,0.0329867228865623,-0.0427605658769607,0.0009162978385575,0.9022891793543194,-1.6183416797637034,-0.2721041840803852,1.8727509825479596
15923473,0.0329867228865623,-0.0427605658769607,0.0009162978385575,0.9045458393559523,-1.6212669797091865,-0.2720414990816672,1.8763572080534432
15924671,0.0329867228865623,-0.0427605658769607,0.0009162978385575,0.9068100593575907,-1.624202079654487,-0.2719786040829535,1.8799758616495557
15925877,0.0329867228865623,-0.0427605658769607,0.0009162978385575,0.90908939935924,-1.6271567795994222,-0.2719152890842484,1.8836190288541568
15927053,0.0329867228865623,-0.0427605658769607,0.0009162978385575,0.9113120393608484,-1.6300379795457272,-0.27185354908551107,1.887171905258218
15928248,0.0329867228865623,-0.0427605658769607,0.0009162978385575,0.9135705893624827,-1.6329657294911646,-0.27179081158679413,1.8907825207314917
15929456,0.0329867228865623,-0.0427605658769607,0.0009162978385575,0.9158537093641348,-1.6359253294360085,-0.27172739158809117,1.8944327583172822
15930668,0.0329867228865623,-0.0427605658769607,0.0009162978385575,0.9181443893657923,-1.6388947293806697,-0.2716637615893925,1.8980954278108677
15931841,0.0329867228865623,-0.0427605658769607,0.0009162978385575,0.9203613593673966,-1.6417685793271117,-0.27160217909065193,1.9016405663450586
15933054,0.0329867228865623,-0.0427605658769607,0.0009162978385575,0.9226539293690555,-1.6447404292717274,-0.27153849659195434,1.9053069328044032
15934255,0.0329867228865623,-0.0427605658769607,0.0009162978385575,0.924923819370698,-1.647682879216891,-0.27147544409324387,1.908937363783675
15935495,0.0329867228865623,-0.0427605658769607,0.0009162978385575,0.9272674193723939,-1.6507208791602737,-0.27141034409457526,1.9126860335158884
15936668,0.0329867228865623,-0.0427605658769607,0.0009162978385575,0.9294843893739981,-1.6535947291067157,-0.2713487615958347,1.916232477712206
15937858,0.0329867228865623,-0.0427605658769607,0.0009162978385575,0.9317334893756256,-1.6565102290523814,-0.2712862865971124,1.9198306392687097
15939048,0.0329867228865623,-0.0427605658769607,0.0009162978385575,0.9339825893772531,-1.6594257289980472,-0.2712238115983901,1.9234291209448031
15940233,0.0329867228865623,-0.0427605658769607,0.0009162978385575,0.9362222393788737,-1.6623289789439413,-0.2711615990996624,1.9270127992752633
15941436,0.0329867228865623,-0.0427605658769607,0.0009162978385575,0.938495909380519,-1.6652763288890136,-0.2710984416009541,1.9306512343042446
15942657,0.0329867228865623,-0.0427605658769607,0.0009162978385575,0.9408035993821888,-1.6682677788332638,-0.27103433910226504,1.9343444386862323
15943870,0.0329867228865623,-0.0427605658769607,0.0009162978385575,0.9430961693838478,-1.6712396287778795,-0.27097065660356745,1.9380137714279224
15944922,0.0329867228865623,-0.0427605658769607,0.0009162978385575,0.9450844493852865,-1.6738170287298462,-0.270915426604697,1.9411963400203252
15945895,0.0329867228865623,-0.0427605658769607,0.0009162978385575,0.9469234193866172,-1.67620087868542,-0.2708643441057417,1.944140128899265
15946864,0.0329867228865623,-0.0427605658769607,0.0009162978385575,0.9487548293879424,-1.6785749286411762,-0.2708134716067821,1.9470720206898846
15947881,0.0329867228865623,-0.0427605658769607,0.0009162978385575,0.9506769593893333,-1.681066578594741,-0.27076007910787403,1.9501493643360959
15948871,0.0329867228865623,-0.0427605658769607,0.0009162978385575,0.9525480593906872,-1.6834920785495384,-0.270708104108937,1.9531452228695807
15949834,0.0329867228865623,-0.0427605658769607,0.0009162978385575,0.9543681293920042,-1.6858514285055688,-0.27065754660997093,1.9560595780625878
15950797,0.0329867228865623,-0.0427605658769607,0.0009162978385575,0.9561881993933212,-1.6882107784615992,-0.2706069891110049,1.9589741314598017
15951760,0.0329867228865623,-0.0427605658769607,0.0009162978385575,0.9580082693946382,-1.6905701284176295,-0.27055643161203885,1.9618888821778746
15952722,0.0329867228865623,-0.0427605658769607,0.0009162978385575,0.9598264493959539,-1.6929270283737055,-0.27050592661307177,1.9648008022929615
15953689,0.0329867228865623,-0.0427605658769607,0.0009162978385575,0.9616540793972763,-1.6952961783295533,-0.27045515911411006,1.967728053815275
15954895,0.0329867228865623,-0.0427605658769607,0.0009162978385575,0.9639334193989256,-1.6982508782744885,-0.27039184411540496,1.9713790685604597
15956105,0.0329867228865623,-0.0427605658769607,0.0009162978385575,0.9662203194005804,-1.7012153782192412,-0.27032831911670413,1.9750424979804
15957329,0.0329867228865623,-0.0427605658769607,0.0009162978385575,0.9685336794022543,-1.7042141781633546,-0.2702640591180183,1.9787486234588805
15958534,0.0329867228865623,-0.0427605658769607,0.0009162978385575,0.9708111294039024,-1.7071664281083354,-0.2702007966193121,1.9823975213685987
15959716,0.0329867228865623,-0.0427605658769607,0.0009162978385575,0.9730451094055189,-1.7100623280543665,-0.2701387416205812,1.9859770619252048
15960913,0.0329867228865623,-0.0427605658769607,0.0009162978385575,0.9753074394071559,-1.7129949779997127,-0.2700758991218664,1.9896023188822594
15962135,0.0329867228865623,-0.0427605658769607,0.0009162978385575,0.9776170194088272,-1.7159888779439174,-0.27001174412317847,1.9933035914856183
15963349,0.0329867228865623,-0.0427605658769607,0.0009162978385575,0.9799114794104875,-1.7189631778884873,-0.2699480091244819,1.9969809318186311
15964552,0.0329867228865623,-0.0427605658769607,0.0009162978385575,0.9821851494121328,-1.7219105278335596,-0.2698848516257736,2.0006252439492127
15965744,0.0329867228865623,-0.0427605658769607,0.0009162978385575,0.9844380294137629,-1.724830927779134,-0.2698222716270534,2.004236518339456
15966926,0.0329867228865623,-0.0427605658769607,0.0009162978385575,0.9866720094153795,-1.7277268277251652,-0.2697602166283225,2.0078177755663993
15968137,0.0329867228865623,-0.0427605658769607,0.0009162978385575,0.9889607994170356,-1.730693777669872,-0.2696966391296228,2.0114871841517186
15969369,0.0329867228865623,-0.0427605658769607,0.0009162978385575,0.9912892794187206,-1.7337121776136202,-0.26963195913094556,2.015220519864027
15970593,0.0329867228865623,-0.0427605658769607,0.0009162978385575,0.9936026394203945,-1.7367109775577336,-0.26956769913225975,2.018929906918062
15971784,0.0329867228865623,-0.0427605658769607,0.0009162978385575,0.9958536294220234,-1.7396289275033536,-0.26950517163353854,2.0225395655404883
15972982,0.0329867228865623,-0.0427605658769607,0.0009162978385575,0.9981178494236618,-1.742564027448654,-0.26944227663482484,2.026170716285858
15974184,0.0329867228865623,-0.0427605658769607,0.0009162978385575,1.0003896294253056,-1.7455089273937718,-0.2693791716361154,2.029814268445371
15975409,0.0329867228865623,-0.0427605658769607,0.0009162978385575,1.002704879426981,-1.7485101773378395,-0.2693148591374307,2.033527823471539
15976602,0.0329867228865623,-0.0427605658769607,0.0009162978385575,1.0049596494286126,-1.7514330272833682,-0.2692522266387116,2.0371446457207125
15977765,0.0329867228865623,-0.0427605658769607,0.0009162978385575,1.007157719430203,-1.7542823772302667,-0.26919116913996033,2.0406707760958067
15978871,0.0329867228865623,-0.0427605658769607,0.0009162978385575,1.0092480594317157,-1.7569920771797678,-0.2691331041411478,2.0440243228699138
15979857,0.0329867228865623,-0.0427605658769607,0.0009162978385575,1.0111115994330642,-1.759407777134748,-0.2690813391422065,2.047014206063282
15980820,0.0329867228865623,-0.0427605658769607,0.0009162978385575,1.0129316694343813,-1.7617671270907784,-0.26903078164324046,2.049934520542642
15981783,0.0329867228865623,-0.0427605658769607,0.0009162978385575,1.0147517394356984,-1.7641264770468088,-0.2689802241442744,2.0528550072243448
15982746,0.0329867228865623,-0.0427605658769607,0.0009162978385575,1.0165718094370155,-1.7664858270028392,-0.2689296666453084,2.055775665374486
15983709,0.0329867228865623,-0.0427605658769607,0.0009162978385575,1.0183918794383326,-1.7688451769588696,-0.26887910914634233,2.0586964942632813
15984677,0.0329867228865623,-0.0427605658769607,0.0009162978385575,1.0202213994396565,-1.7712167769146716,-0.26882828914738166,2.0616326597491894
15985644,0.0329867228865623,-0.0427605658769607,0.0009162978385575,1.022049029440979,-1.7735859268705194,-0.26877752164841995,2.0645659627916646
15987006,0.0329867228865623,-0.0427605658769607,0.0009162978385575,1.0246232094428416,-1.776922826808332,-0.2687060166498823,2.06869774910336
15988286,0.0329867228865623,-0.0427605658769607,0.0009162978385575,1.027042409444592,-1.7800588267498882,-0.26863881665125666,2.072581084372751
15989472,0.0335975885391235,-0.0360410474240779,-0.0363464802503585,1.0293254594743713,-1.782507916639152,-0.271108661554599,2.0761371054854014
15990671,0.0335975885391235,-0.0360410474240779,-0.0363464802503585,1.0316335345044767,-1.784983851527202,-0.27360557895688187,2.079734385099072
15991848,0.0335975885391235,-0.0360410474240779,-0.0363464802503585,1.03389925953403,-1.7874143564173062,-0.27605668136095773,2.0832678780501883
15993055,0.0335975885391235,-0.0360410474240779,-0.0363464802503585,1.0362227345643364,-1.7899068113046093,-0.2785702587625886,2.0868937054506826
15994270,0.0335975885391235,-0.0360410474240779,-0.0363464802503585,1.0385616095948438,-1.7924157861911654,-0.2811004961635675,2.0905458752332917
15995463,0.0335975885391235,-0.0360410474240779,-0.0363464802503585,1.0408581346247987,-1.7948793310797755,-0.2835849185663394,2.0941341589282847
15996656,0.0335975885391235,-0.0360410474240779,-0.0363464802503585,1.0431546596547536,-1.7973428759683856,-0.28606934096911124,2.0977246543806065
15997854,0.0335975885391235,-0.0360410474240779,-0.0363464802503585,1.0454608096848341,-1.7998167458565288,-0.2885641758714756,2.101332412268187
15999052,0.0335975885391235,-0.0360410474240779,-0.0363464802503585,1.0477669597149146,-1.802290615744672,-0.29105901077383994,2.1049423776493716
16000247,0.0335975885391235,-0.0360410474240779,-0.0363464802503585,1.0500673347449196,-1.8047582906330955,-0.2935475981764488,2.108545490972949
16001436,0.0335975885391235,-0.0360410474240779,-0.0363464802503585,1.0523561597747741,-1.807213575522079,-0.2960236905795467,2.1121326710108774
16002624,0.0335975885391235,-0.0360410474240779,-0.0363464802503585,1.0546430598046035,-1.809666795411156,-0.29849770048272606,2.115718972642911
16003819,0.0335975885391235,-0.0360410474240779,-0.0363464802503585,1.0569434348346085,-1.8121344702995794,-0.30098628788533494,2.1193285513065008
16005063,0.0335975885391235,-0.0360410474240779,-0.0363464802503585,1.059338134865844,-1.8147033301834277,-0.30357691778395035,2.123088412094765
16006266,0.0335975885391235,-0.0360410474240779,-0.0363464802503585,1.06165390989605,-1.8171875250711043,-0.30608216518590725,2.126726549774679
16007475,0.0335975885391235,-0.0360410474240779,-0.0363464802503585,1.0639812349264066,-1.8196841099582206,-0.30859990758737516,2.130384996021353
16008695,0.0335975885391235,-0.0360410474240779,-0.0363464802503585,1.0663297349570395,-1.8222034098443098,-0.31114055748794656,2.134078915367398
16009741,0.0335975885391235,-0.0360410474240779,-0.0363464802503585,1.0683432849833034,-1.8243633997466453,-0.31331885240269874,2.137247737669875
16010705,0.0335975885391235,-0.0360410474240779,-0.0363464802503585,1.0701989850075084,-1.8263540596566372,-0.31532638232413385,2.1401695601341983
16011853,0.0335975885391235,-0.0360410474240779,-0.0363464802503585,1.0724088850363334,-1.828724679549449,-0.31771709223057315,2.143650839337777
16013080,0.0335975885391235,-0.0360410474240779,-0.0363464802503585,1.074770860067142,-1.8312584344348846,-0.32027231963057406,2.1473737946757003
16014267,0.0335975885391235,-0.0360410474240779,-0.0363464802503585,1.0770558350969461,-1.833709589324055,-0.3227442470338349,2.1509774473222194
16015315,0.0335975885391235,-0.0360410474240779,-0.0363464802503585,1.0790732351232601,-1.8358737092262036,-0.3249267069484241,2.1541607850566087
16016292,0.0335975885391235,-0.0360410474240779,-0.0363464802503585,1.0809539601477915,-1.8378912141349817,-0.32696130936879975,2.157129870169599
16017260,0.0335975885391235,-0.0360410474240779,-0.0363464802503585,1.082817360172097,-1.8398901340446001,-0.32897716928990883,2.160072942925476
16018227,0.0335975885391235,-0.0360410474240779,-0.0363464802503585,1.0846788351963772,-1.841886988954312,-0.3309909467110994,2.1630143000930118
16019198,0.0335975885391235,-0.0360410474240779,-0.0363464802503585,1.0865480102207579,-1.8438921038636502,-0.333013054131964,2.1659691510794206
16020431,0.0335975885391235,-0.0360410474240779,-0.0363464802503585,1.0889215352517172,-1.8464382487485256,-0.33558077653147594,2.169723202151359
16021601,0.0335975885391235,-0.0360410474240779,-0.0363464802503585,1.0911737852810945,-1.8488542986392833,-0.3380173014361223,2.1732874046825437
16022815,0.0335975885391235,-0.0360410474240779,-0.0363464802503585,1.0935107353115767,-1.8513612085259328,-0.3405454563371827,2.1769876574083207
16024025,0.0335975885391235,-0.0360410474240779,-0.0363464802503585,1.0958399853419585,-1.8538598584129558,-0.34306528123856905,2.1806777467797636
16025213,0.0335975885391235,-0.0360410474240779,-0.0363464802503585,1.0981268853717878,-1.8563130783020327,-0.3455392911417484,2.1843027040166056
16026402,0.0335975885391235,-0.0360410474240779,-0.0363464802503585,1.1004157104016423,-1.8587683631910163,-0.3480153835448463,2.18793264770249
16027594,0.0335975885391235,-0.0360410474240779,-0.0363464802503585,1.102710310431572,-1.8612298430797198,-0.35049772344769964,2.1915736838273707
16028797,0.0335975885391235,-0.0360410474240779,-0.0363464802503585,1.1050260854617782,-1.8637140379673964,-0.35300297084965654,2.1952502732710006
16029972,0.0335975885391235,-0.0360410474240779,-0.0363464802503585,1.107287960491281,-1.8661404128576873,-0.3554499082538954,2.198843174314008
16031167,0.0335975885391235,-0.0360410474240779,-0.0363464802503585,1.109588335521286,-1.8686080877461106,-0.35793849565650426,2.202499132028868
16032360,0.0335975885391235,-0.0360410474240779,-0.0363464802503585,1.111884860551241,-1.8710716326347208,-0.3604229180592761,2.206150873679263
16033555,0.0335975885391235,-0.0360410474240779,-0.0363464802503585,1.114185235581246,-1.8735393075231441,-0.362911505461885,2.209810633701031
16034750,0.0335975885391235,-0.0360410474240779,-0.0363464802503585,1.116485610611251,-1.8760069824115675,-0.3654000928644939,2.2134722823257387
16035939,0.0335975885391235,-0.0360410474240779,-0.0363464802503585,1.1187744356411056,-1.878462267300551,-0.36787618526759175,2.217117411235372
16037131,0.0335975885391235,-0.0360410474240779,-0.0363464802503585,1.1210690356710353,-1.8809237471892546,-0.3703585251704451,2.220773595539914
16038372,0.0335975885391235,-0.0360410474240779,-0.0363464802503585,1.1234579607021955,-1.883486412073383,-0.37294290756930504,2.2245820430445913
16039531,0.0335975885391235,-0.0360410474240779,-0.0363464802503585,1.1256890357312967,-1.8858797469651678,-0.37535652497484784,2.2281406477195858
16040725,0.0335975885391235,-0.0360410474240779,-0.0363464802503585,1.1279874857612768,-1.8883453568536845,-0.3778430298775382,2.231808528976434
16041908,0.0335975885391235,-0.0360410474240779,-0.0363464802503585,1.1302647607909806,-1.8907882517432284,-0.3803066272811251,2.235444424084404
16043178,0.0335975885391235,-0.0360410474240779,-0.0363464802503585,1.1327095108228689,-1.8934108016246491,-0.3829514021776215,2.239349699365261
16044402,0.0335975885391235,-0.0360410474240779,-0.0363464802503585,1.1350657108536022,-1.8959383615103649,-0.3855003820778669,2.2431154636318618
16045599,0.0335975885391235,-0.0360410474240779,-0.0363464802503585,1.1373699358836575,-1.8984101663986015,-0.38799313448031275,2.246799991842046
16046778,0.0335975885391235,-0.0360410474240779,-0.0363464802503585,1.1396395109132609,-1.9008448012885188,-0.3904484018842256,2.2504308760666594
16047837,0.0335975885391235,-0.0360410474240779,-0.0363464802503585,1.1416780859398512,-1.9030316361896407,-0.3926537692979183,2.2536936887691206
16048802,0.0335975885391235,-0.0360410474240779,-0.0363464802503585,1.1435357109640814,-1.9050243610995392,-0.3946633817192719,2.2566681022035397
16049831,0.0335975885391235,-0.0360410474240779,-0.0363464802503585,1.1455165359899184,-1.907149246003462,-0.3968062741354096,2.2598410563469153
16050831,0.0335975885391235,-0.0360410474240779,-0.0363464802503585,1.1474415360150274,-1.9092142459100925,-0.3988887740539107,2.2629258426702368
16051794,0.0335975885391235,-0.0360410474240779,-0.0363464802503585,1.1492953110392072,-1.9112028408201776,-0.4008942214754273,2.2658976560180766
16052756,0.0335975885391235,-0.0360410474240779,-0.0363464802503585,1.151147161063362,-1.913189370730356,-0.4028975863970254,2.2688675192316543
16053722,0.0335975885391235,-0.0360410474240779,-0.0363464802503585,1.153006711087617,-1.9151841606401612,-0.4049092813182975,2.27185086902238
16054689,0.0335975885391235,-0.0360410474240779,-0.0363464802503585,1.1548681861118972,-1.917181015549873,-0.4069230587394881,2.2748384446839576
16055657,0.0335975885391235,-0.0360410474240779,-0.0363464802503585,1.1567315861362026,-1.9191799354594914,-0.4089389186605972,2.277830245262094
16056621,0.0335975885391235,-0.0360410474240779,-0.0363464802503585,1.1585872861604076,-1.9211705953694833,-0.4109464485820323,2.280810807534693
16058041,0.0335975885391235,-0.0360410474240779,-0.0363464802503585,1.1613207861960622,-1.9241028952368986,-0.4139035984663039,2.285203297024886
16059178,0.0335975885391235,-0.0360410474240779,-0.0363464802503585,1.163509511224611,-1.9264508001307374,-0.41627140087363973,2.288722121014212
16060336,0.0335975885391235,-0.0360410474240779,-0.0363464802503585,1.165738661253687,-1.9288420700226157,-0.4186829357792641,2.2923075182321004
16061551,0.0335975885391235,-0.0360410474240779,-0.0363464802503585,1.1680775362841944,-1.9313510449091718,-0.421213173180243,2.2960711066306443
16062719,0.0335975885391235,-0.0360410474240779,-0.0363464802503585,1.1703259363135217,-1.9337629648001162,-0.4236455330850523,2.2996907485450246
16063915,0.0335975885391235,-0.0360410474240779,-0.0363464802503585,1.1726282363435518,-1.9362327046884462,-0.4261362029875797,2.3033988214966152
16065097,0.0335975885391235,-0.0360410474240779,-0.0363464802503585,1.1749035863732304,-1.9386735345780834,-0.42859771789124806,2.3070651301443017
16066289,0.0335975885391235,-0.0360410474240779,-0.0363464802503585,1.1771981864031602,-1.941135014466787,-0.4310800577941014,2.310764101047017
16067514,0.0342084541916847,-0.0348193198442459,-0.0400116741657257,1.1795991864630015,-1.9435788895557113,-0.4338883703687636,2.3145652418050453
16068701,0.0342084541916847,-0.0348193198442459,-0.0400116741657257,1.1819257065209867,-1.9459469546418773,-0.4366095679411097,2.31825059923056
16069930,0.0342084541916847,-0.0348193198442459,-0.0400116741657257,1.1843345465810236,-1.948398809731092,-0.4394270505160157,2.3220685546968722
16071127,0.0342084541916847,-0.0348193198442459,-0.0400116741657257,1.1866806666394971,-1.950786824817984,-0.4421711730889713,2.325789239542197
16072328,0.0342084541916847,-0.0348193198442459,-0.0400116741657257,1.1890346266981662,-1.9531828199051664,-0.4449244656621707,2.3295244689860444
16073587,0.0342084541916847,-0.0348193198442459,-0.0400116741657257,1.1915022667596684,-1.955694524996559,-0.44781072323890514,2.333442343543696
16074783,0.0342084541916847,-0.0348193198442459,-0.0400116741657257,1.1938464268180933,-1.9580805450833783,-0.4505525533117998,2.337166300278209
16075968,0.0342084541916847,-0.0348193198442459,-0.0400116741657257,1.1961690268759806,-1.960444620169399,-0.453269165884024,2.340858044895027
16077161,0.0342084541916847,-0.0348193198442459,-0.0400116741657257,1.1985073069342589,-1.9628246552560005,-0.45600411845673583,2.3445767524449166
16078355,0.0342084541916847,-0.0348193198442459,-0.0400116741657257,1.200847546992586,-1.9652066853426746,-0.4587413635295086,2.348300616583525
16079622,0.0342084541916847,-0.0348193198442459,-0.0400116741657257,1.2033308670544791,-1.9677343504346478,-0.4616459611067306,2.3522543746144264
16080808,0.0342084541916847,-0.0348193198442459,-0.0400116741657257,1.2056554271124154,-1.9701004205207413,-0.4643648661790158,2.355957428478511
16081856,0.0342084541916847,-0.0348193198442459,-0.0400116741657257,1.2077095071636104,-1.972191180596817,-0.46676740624289004,2.359231255737333
16082822,0.0342084541916847,-0.0348193198442459,-0.0400116741657257,1.2096028672107997,-1.9741183506669404,-0.4689819613017665,2.3622502913177934
16083786,0.0342084541916847,-0.0348193198442459,-0.0400116741657257,1.2114923072578911,-1.9760415307369186,-0.47119193136052107,2.365264378018113
16084750,0.0342084541916847,-0.0348193198442459,-0.0400116741657257,1.2133817473049826,-1.9779647108068967,-0.47340190141927563,2.3682797601123244
16085714,0.0342084541916847,-0.0348193198442459,-0.0400116741657257,1.215271187352074,-1.979887890876875,-0.4756118714780302,2.371296432658691
16086886,0.0342084541916847,-0.0348193198442459,-0.0400116741657257,1.2175683074093264,-1.982226030961952,-0.4782986815494621,2.3749657365534222
16087895,0.0342084541916847,-0.0348193198442459,-0.0400116741657257,1.219545947458616,-1.9842389860351968,-0.4806118141109593,2.378126234565303
16088863,0.0342084541916847,-0.0348193198442459,-0.0400116741657257,1.221443227505903,-1.9861701461054653,-0.4828309541699577,2.381159620354191
16089928,0.0342084541916847,-0.0348193198442459,-0.0400116741657257,1.2235306275579285,-1.9882948211827751,-0.48527246673486807,2.3844984503005
16091150,0.0342084541916847,-0.0348193198442459,-0.0400116741657257,1.2259257476176233,-1.9907327112714819,-0.4880739018093474,2.388331384047351
16092366,0.0342084541916847,-0.0348193198442459,-0.0400116741657257,1.2283091076770252,-1.9931586313597531,-0.490861581883461,2.3921475051374546
16093540,0.0342084541916847,-0.0348193198442459,-0.0400116741657257,1.2306101477343752,-1.9955007614449753,-0.4935529769550148,2.3958337099422105
16094738,0.0342084541916847,-0.0348193198442459,-0.0400116741657257,1.2329582277928977,-1.9978907715319398,-0.49629939202803136,2.3995971772324802
16095912,0.0342084541916847,-0.0348193198442459,-0.0400116741657257,1.2352592678502476,-2.0002329016171623,-0.49899078709958516,2.4032871083439042
16097145,0.0342084541916847,-0.0348193198442459,-0.0400116741657257,1.23767594791048,-2.0026927367066674,-0.5018174396747349,2.4071644506463308
16098302,0.0342084541916847,-0.0348193198442459,-0.0400116741657257,1.2399436679669995,-2.0050009517906555,-0.5044698622452526,2.410804628817241
16099364,0.0342084541916847,-0.0348193198442459,-0.0400116741657257,1.2420251880188784,-2.0071196418677477,-0.5069044973099801,2.4141474672931085
16100340,0.0342084541916847,-0.0348193198442459,-0.0400116741657257,1.2439381480665561,-2.009066761938597,-0.5091419773694661,2.4172209090733476
16101485,0.0342084541916847,-0.0348193198442459,-0.0400116741657257,1.2461823481224896,-2.011351037021714,-0.5117668899392523,2.420828120403946
16102656,0.0342084541916847,-0.0348193198442459,-0.0400116741657257,1.248477508179693,-2.0136871821067186,-0.5144514075106232,2.4245190051845613
16103852,0.0342084541916847,-0.0348193198442459,-0.0400116741657257,1.250821668238118,-2.016073202193538,-0.5171932375835179,2.428290519550537
16105089,0.0342084541916847,-0.0348193198442459,-0.0400116741657257,1.2532461882985455,-2.0185410172833333,-0.5200290601589115,2.432193263363302
16106280,0.0342084541916847,-0.0348193198442459,-0.0400116741657257,1.255580548356726,-2.0209170623697896,-0.5227594277315014,2.4359527305904938
16107496,0.0342084541916847,-0.0348193198442459,-0.0400116741657257,1.2579639084161278,-2.0233429824580607,-0.5255471078056151,2.439792979345319
16108686,0.0342084541916847,-0.0348193198442459,-0.0400116741657257,1.2602963084742596,-2.0257170325444442,-0.528275182878144,2.443552935775988
16109857,0.0342084541916847,-0.0348193198442459,-0.0400116741657257,1.262591468531463,-2.028053177629449,-0.5309597004495149,2.4472546069428045
16111070,0.0342084541916847,-0.0348193198442459,-0.0400116741657257,1.2649689485907183,-2.030473112717502,-0.5337405030234457,2.4510908646835454
16112120,0.0342084541916847,-0.0348193198442459,-0.0400116741657257,1.267026948642011,-2.0325678627937234,-0.5361476280874418,2.454413103890769
16113096,0.0342084541916847,-0.0348193198442459,-0.0400116741657257,1.2689399086896886,-2.0345149828645726,-0.5383851081469277,2.457502437850308
16114242,0.0342084541916847,-0.0348193198442459,-0.0400116741657257,1.2711860687456709,-2.0368012529477624,-0.541012313216775,2.4611313838222477
16115518,0.0342084541916847,-0.0348193198442459,-0.0400116741657257,1.2736870288080036,-2.039346873040389,-0.5439375432945456,2.4651739019668932
16116706,0.0342084541916847,-0.0348193198442459,-0.0400116741657257,1.2760155088660374,-2.0417169331266276,-0.5466610333669526,2.4689394280306836
16117750,0.0342084541916847,-0.0348193198442459,-0.0400116741657257,1.278061748917037,-2.043799713202413,-0.5490544034305831,2.4722499549312675
16118717,0.0342084541916847,-0.0348193198442459,-0.0400116741657257,1.279957068964275,-2.045728878272609,-0.5512712509895205,2.4753175016465416
16119683,0.0342084541916847,-0.0348193198442459,-0.0400116741657257,1.2818504290114643,-2.047656048342732,-0.5534858060483969,2.478383011596168
16120803,0.0342084541916847,-0.0348193198442459,-0.0400116741657257,1.2840456290661764,-2.0498904484240343,-0.5560534061166594,2.4819386411670172
16121783,0.0342084541916847,-0.0348193198442459,-0.0400116741657257,1.2859664291140496,-2.051845548495174,-0.5583000561763891,2.485051058713756
16123064,0.0342084541916847,-0.0348193198442459,-0.0400116741657257,1.2884771891766267,-2.0544011435881635,-0.5612367487544644,2.4891211730161587
16124265,0.0342084541916847,-0.0348193198442459,-0.0400116741657257,1.2908311492352957,-2.056797138675346,-0.5639900413276638,2.492938886578647
16125524,0.0342084541916847,-0.0348193198442459,-0.0400116741657257,1.293298789296798,-2.0593088437667384,-0.5668762989043983,2.496942812855756
16126770,0.0342084541916847,-0.0348193198442459,-0.0400116741657257,1.2957409493576653,-2.061794613857187,-0.5697327539803404,2.5009072450874372
16128059,0.0342084541916847,-0.0348193198442459,-0.0400116741657257,1.2982673894206331,-2.0643661689507575,-0.5726877865589033,2.5050104181051283
16129272,0.0342084541916847,-0.0348193198442459,-0.0400116741657257,1.3006448694798884,-2.066786104038811,-0.575468589132834,2.50887344707357
16130468,0.0342084541916847,-0.0348193198442459,-0.0400116741657257,1.3029890295383133,-2.0691721241256302,-0.5782104192057287,2.5126840189792734
16131657,0.0342084541916847,-0.0348193198442459,-0.0400116741657257,1.305319469596396,-2.0715441792119416,-0.5809362017781967,2.5164739368153155
16132883,0.0342084541916847,-0.0348193198442459,-0.0400116741657257,1.3077224296562864,-2.0739900493009387,-0.5837468068529198,2.520383504972295
16134106,0.0342084541916847,-0.0348193198442459,-0.0400116741657257,1.31011950971603,-2.076429934389718,-0.5865505344274601,2.5242852318241296
16135303,0.0342084541916847,-0.0348193198442459,-0.0400116741657257,1.3124656297745037,-2.07881794947661,-0.5892946570004157,2.5281056720744015
16136511,0.0342084541916847,-0.0348193198442459,-0.0400116741657257,1.3148333098335145,-2.0812279095643005,-0.5920639970740418,2.531962879038402
16137705,0.0342084541916847,-0.0348193198442459,-0.0400116741657257,1.3171735498918415,-2.0836099396509744,-0.5948012421468145,2.535777012831847
16138925,0.0342084541916847,-0.0348193198442459,-0.0400116741657257,1.3195647499514387,-2.0860438397395358,-0.597598092221172,2.53967586720354
16139989,0.0342084541916847,-0.0348193198442459,-0.0400116741657257,1.3216501900034152,-2.088166519816773,-0.6000373122860214,2.543077548041976
16141251,0.0342084541916847,-0.0348193198442459,-0.0400116741657257,1.324123710065064,-2.090684209908383,-0.6029304473629387,2.5471138940915035
16142443,0.0342084541916847,-0.0348193198442459,-0.0400116741657257,1.3264600301232934,-2.093062249994912,-0.6056631074355895,2.5509279867485457
16143694,0.0342084541916847,-0.0348193198442459,-0.0400116741657257,1.3289119901844049,-2.095557995085724,-0.6085310250118363,2.5549325620895615
16144884,0.0317649915814399,-0.0387899428606033,-0.0042760567739605,1.331077790129528,-2.0982027701017487,-0.6088225750191028,2.5582978473374927
16146121,0.0317649915814399,-0.0387899428606033,-0.0042760567739605,1.3333291300724839,-2.1009520026184063,-0.6091256400266561,2.561796231503205
16147252,0.0317649915814399,-0.0387899428606033,-0.0042760567739605,1.3353875500203278,-2.1034656501336366,-0.6094027350335623,2.564994998729589
16148485,0.0317649915814399,-0.0387899428606033,-0.0042760567739605,1.3376316099634682,-2.1062059926502403,-0.6097048200410914,2.568482426459364
16149556,0.0317649915814399,-0.0387899428606033,-0.0042760567739605,1.3395808299140792,-2.108586290164663,-0.6099672150476312,2.571511801718326
16150546,0.0317649915814399,-0.0387899428606033,-0.0042760567739605,1.3413826298684255,-2.1107865651779942,-0.6102097650536764,2.5743121879087454
16151511,0.0317649915814399,-0.0387899428606033,-0.0042760567739605,1.3431389298239247,-2.112931277690989,-0.6104461900595689,2.57704197094492
16152961,0.0317649915814399,-0.0387899428606033,-0.0042760567739605,1.345777929757058,-2.116153902710515,-0.610801440068423,2.58114392767389
16154029,0.0317649915814399,-0.0387899428606033,-0.0042760567739605,1.3477216897078073,-2.118527532724897,-0.6110631000749445,2.584165391784262
16154995,0.0317649915814399,-0.0387899428606033,-0.0042760567739605,1.3494798096632603,-2.1206744677379055,-0.6112997700808431,2.586898406142988
16155961,0.0317649915814399,-0.0387899428606033,-0.0042760567739605,1.3512379296187134,-2.122821402750914,-0.6115364400867418,2.589631531313208
16156926,0.0317649915814399,-0.0387899428606033,-0.0042760567739605,1.3529942295742126,-2.1249661152639088,-0.6117728650926343,2.5923619374509714
16157893,0.0317649915814399,-0.0387899428606033,-0.0042760567739605,1.3547541695296195,-2.1271152727769307,-0.612009780098539,2.5950981126876544
16158857,0.0317649915814399,-0.0387899428606033,-0.0042760567739605,1.3565086494851648,-2.129257762789912,-0.6122459601044254,2.5978259087539635
16159820,0.0317649915814399,-0.0387899428606033,-0.0042760567739605,1.358261309440756,-2.13139803030288,-0.6124818951103058,2.6005509839533287
16161122,0.0317649915814399,-0.0387899428606033,-0.0042760567739605,1.3606309493807145,-2.1342917253204132,-0.6128008851182561,2.6042355258281784
16162348,0.0317649915814399,-0.0387899428606033,-0.0042760567739605,1.3628622693241776,-2.137016510336923,-0.6131012551257424,2.6077051749837072
16163585,0.0317649915814399,-0.0387899428606033,-0.0042760567739605,1.3651136092671334,-2.1397657428535806,-0.6134043201332958,2.6112061313604227
16164742,0.0317649915814399,-0.0387899428606033,-0.0042760567739605,1.3672193492137785,-2.142337175369161,-0.6136877851403608,2.6144808317262043
16165933,0.0317649915814399,-0.0387899428606033,-0.0042760567739605,1.3693869691588556,-2.144984172885199,-0.6139795801476334,2.61785192439686
16167144,0.0317649915814399,-0.0387899428606033,-0.0042760567739605,1.3715909891030105,-2.1476756204015066,-0.6142762751550281,2.6212797931685787
16168354,0.0317649915814399,-0.0387899428606033,-0.0042760567739605,1.3737931890472115,-2.150364845417801,-0.6145727251624167,2.624704998508364
16169528,0.0317649915814399,-0.0387899428606033,-0.0042760567739605,1.3759298689930726,-2.15297406043361,-0.6148603551695855,2.6280284560191784
16170699,0.0317649915814399,-0.0387899428606033,-0.0042760567739605,1.378061088939072,-2.1555766079493788,-0.6151472501767359,2.631343576385739
16171871,0.0317649915814399,-0.0387899428606033,-0.0042760567739605,1.3801941288850255,-2.1581813779651613,-0.6154343901838925,2.6346616826881806
16173073,0.0317649915814399,-0.0387899428606033,-0.0042760567739605,1.3823817688295954,-2.1608528229813477,-0.6157288801912322,2.638064883826865
16174278,0.0317649915814399,-0.0387899428606033,-0.0042760567739605,1.384574868774027,-2.1635309354975747,-0.6160241051985902,2.641476741196361
16175469,0.0317649915814399,-0.0387899428606033,-0.0042760567739605,1.386742488719104,-2.166177933013613,-0.6163159002058628,2.6448491178780964
16176668,0.0317649915814399,-0.0387899428606033,-0.0042760567739605,1.3889246686638121,-2.1688427105297587,-0.6166096552131842,2.64824430616646
16177849,0.0317649915814399,-0.0387899428606033,-0.0042760567739605,1.3910740886093504,-2.1714674830456624,-0.6168990002203957,2.651588679715978
16179064,0.0317649915814399,-0.0387899428606033,-0.0042760567739605,1.3932853885533207,-2.174167820562024,-0.6171966752278147,2.655029495473801
16180258,0.0317649915814399,-0.0387899428606033,-0.0042760567739605,1.3954584684982596,-2.1768214855781025,-0.6174892052351056,2.658410998314566
16181423,0.0317649915814399,-0.0387899428606033,-0.0042760567739605,1.3975787684445358,-2.1794106980937906,-0.6177746302422195,2.6617105212144163
16182672,0.0317649915814399,-0.0387899428606033,-0.0042760567739605,1.3998519483869383,-2.18218660061061,-0.6180806352498461,2.6652481139582576
16183852,0.0317649915814399,-0.0387899428606033,-0.0042760567739605,1.4019995483325227,-2.1848091506265,-0.6183697352570515,2.6685904308581643
16184902,0.0317649915814399,-0.0387899428606033,-0.0042760567739605,1.4039105482841021,-2.18714277564064,-0.618626985263463,2.67156465306692
16185870,0.0317649915814399,-0.0387899428606033,-0.0042760567739605,1.4056723082394629,-2.189294155653675,-0.6188641452693739,2.6743067079956613
16186840,0.0317649915814399,-0.0387899428606033,-0.0042760567739605,1.4074377081947314,-2.191449980666737,-0.6191017952752971,2.6770545293523207
16187800,0.0317649915814399,-0.0387899428606033,-0.0042760567739605,1.409184908150461,-2.1935835806796646,-0.619336995281159,2.6797741219196696
16188765,0.0317649915814399,-0.0387899428606033,-0.0042760567739605,1.4109412081059602,-2.1957282931926594,-0.6195734202870515,2.68250797825178
16189724,0.0317649915814399,-0.0387899428606033,-0.0042760567739605,1.412686588061736,-2.1978596707055735,-0.6198083752929074,2.6852249347655692
16190904,0.0317649915814399,-0.0387899428606033,-0.0042760567739605,1.4148341880073205,-2.200482220721464,-0.6200974753001128,2.6885681434806843
16191988,0.0317649915814399,-0.0387899428606033,-0.0042760567739605,1.416807067957332,-2.2028914107360613,-0.620363055306732,2.6916394921493607
16192964,0.0317649915814399,-0.0387899428606033,-0.0042760567739605,1.4185833879123237,-2.2050605707492044,-0.6206021753126917,2.694404945277613
16194065,0.0317649915814399,-0.0387899428606033,-0.0042760567739605,1.4205872078615511,-2.2075075432640308,-0.6208719203194146,2.6975247005632017
16195395,0.0317649915814399,-0.0387899428606033,-0.0042760567739605,1.4230078078002184,-2.2104634682819406,-0.621197770327536,2.7012935115476275
16196561,0.0317649915814399,-0.0387899428606033,-0.0042760567739605,1.4251299277464484,-2.213054903297642,-0.6214834403346559,2.704597748756464
16197758,0.0317649915814399,-0.0387899428606033,-0.0042760567739605,1.4273084676912489,-2.2157152358137613,-0.621776705341965,2.7079899814191117
16198811,0.0317649915814399,-0.0387899428606033,-0.0042760567739605,1.4292249276426898,-2.218055528327941,-0.622034690348395,2.7109742485937076
16199991,0.0317649915814399,-0.0387899428606033,-0.0042760567739605,1.4313725275882743,-2.2206780783438314,-0.6223237903556004,2.7143185775464636
16201164,0.0317649915814399,-0.0387899428606033,-0.0042760567739605,1.4335073875341815,-2.2232850708596272,-0.622611175362763,2.7176432091260567
16202353,0.0317649915814399,-0.0387899428606033,-0.0042760567739605,1.4356713674793509,-2.2259276233756387,-0.6229024803700234,2.7210133332929254
16203528,0.0317649915814399,-0.0387899428606033,-0.0042760567739605,1.4378098674251658,-2.2285390608914613,-0.6231903553771982,2.7243439173164843
16204713,0.0317649915814399,-0.0387899428606033,-0.0042760567739605,1.4399665673705198,-2.231172723407419,-0.6234806803844342,2.727702988896473
16205905,0.0317649915814399,-0.0387899428606033,-0.0042760567739605,1.4421360073155507,-2.2338219434234703,-0.6237727203917128,2.731082046592728
16207113,0.0317649915814399,-0.0387899428606033,-0.0042760567739605,1.444334567259844,-2.2365067234397373,-0.6240686803990892,2.734506607055081
16208281,0.0317649915814399,-0.0387899428606033,-0.0042760567739605,1.4464603272059817,-2.239102603455466,-0.6243548404062214,2.7378179109868794
16209336,0.0317649915814399,-0.0387899428606033,-0.0042760567739605,1.4483804271573304,-2.241447340969673,-0.6246133154126635,2.7408089750844122
16210537,0.0317649915814399,-0.0387899428606033,-0.0042760567739605,1.4505662471019465,-2.244116563485846,-0.6249075604199972,2.744214103675772
16211621,0.0317649915814399,-0.0387899428606033,-0.0042760567739605,1.4525391270519579,-2.2465257535004435,-0.6251731404266163,2.7472876318777537
16212594,0.0317649915814399,-0.0387899428606033,-0.0042760567739605,1.4543099870070881,-2.248688246013546,-0.6254115254325577,2.7500465345539
16213565,0.0317649915814399,-0.0387899428606033,-0.0042760567739605,1.4560772069623105,-2.250846293526622,-0.6256494204384869,2.7527998595998056
16214537,0.0317649915814399,-0.0387899428606033,-0.0042760567739605,1.4578462469174869,-2.253006563539711,-0.6258875604444222,2.7555561132598063
16215509,0.0317649915814399,-0.0387899428606033,-0.0042760567739605,1.4596152868726633,-2.2551668335528,-0.6261257004503574,2.7583124597466075
16216474,0.0317649915814399,-0.0387899428606033,-0.0042760567739605,1.4613715868281625,-2.257311546065795,-0.6263621254562499,2.761049047553607
16217446,0.0317649915814399,-0.0387899428606033,-0.0042760567739605,1.463140626783339,-2.259471816078884,-0.6266002654621852,2.7638055781975748
16218418,0.0317649915814399,-0.0387899428606033,-0.0042760567739605,1.4649096667385153,-2.261632086091973,-0.6268384054681204,2.7665622008396076
16219390,0.0317649915814399,-0.0387899428606033,-0.0042760567739605,1.4666787066936917,-2.2637923561050624,-0.6270765454740557,2.769318915204976
16220348,0.0317649915814399,-0.0387899428606033,-0.0042760567739605,1.4684222666495137,-2.265921511117963,-0.6273112554799055,2.772036013292573
16221324,0.0317649915814399,-0.0387899428606033,-0.0042760567739605,1.4701985866045055,-2.268090671131106,-0.6275503754858652,2.7748042544111624
16222302,0.0329867228865623,-0.0387899428606033,0.0216857157647609,1.472047006605843,-2.270264276144276,-0.626335210496583,2.7772860978123797
16223273,0.0329867228865623,-0.0387899428606033,0.0216857157647609,1.4738821966071711,-2.2724223236573518,-0.6251287430072241,2.7797514082855774
16224243,0.0329867228865623,-0.0387899428606033,0.0216857157647609,1.4757154966084978,-2.2745781486704137,-0.6239235180178542,2.782215401020411
16225214,0.0329867228865623,-0.0387899428606033,0.0216857157647609,1.4775506866098258,-2.2767361961834895,-0.6227170505284952,2.7846831531670064
16226355,0.0329867228865623,-0.0387899428606033,0.0216857157647609,1.4797071766113863,-2.2792720686988543,-0.6212993580409993,2.7875845070541185
16227567,0.0329867228865623,-0.0387899428606033,0.0216857157647609,1.4819978566130438,-2.2819657387151753,-0.6197934480542815,2.7906682350158656
16228735,0.0329867228865623,-0.0387899428606033,0.0216857157647609,1.4842053766146412,-2.284561618730904,-0.6183422080670815,2.7936417945089973
16229908,0.0329867228865623,-0.0387899428606033,0.0216857157647609,1.4864223466162454,-2.2871686112467,-0.6168847555799363,2.7966298379405203
16231089,0.0329867228865623,-0.0387899428606033,0.0216857157647609,1.4886544366178605,-2.2897933837626034,-0.6154173630928788,2.7996400309291953
16232284,0.0329867228865623,-0.0387899428606033,0.0216857157647609,1.4909129866194948,-2.2924492712786955,-0.6139325756059746,2.8026877104749057
16233479,0.0329867228865623,-0.0387899428606033,0.0216857157647609,1.4931715366211291,-2.2951051587947875,-0.6124477881190704,2.8057371973999796
16234686,0.0329867228865623,-0.0387899428606033,0.0216857157647609,1.49545276662278,-2.297787716311041,-0.6109480906322978,2.808819135486813
16235875,0.0329867228865623,-0.0387899428606033,0.0216857157647609,1.4976999766244061,-2.3004302688270526,-0.6094707581453279,2.811856903676055
16237063,0.0329867228865623,-0.0387899428606033,0.0216857157647609,1.499945296626031,-2.30307059884305,-0.6079946681583471,2.8148938865674524
16238258,0.0329867228865623,-0.0387899428606033,0.0216857157647609,1.5022038466276653,-2.3057264863591422,-0.606509880671443,2.817950542872092
