time_micros,accel_x,accel_y,accel_z,gyro_x,gyro_y,gyro_z
15322722,-0.31057479977607727,0.07599806785583496,10.065256118774414,0.028099801391363144,-0.04245513305068016,-0.007941247895359993
15323934,-0.3973442316055298,0.07659648358821869,10.273503303527832,0.028099801391363144,-0.04245513305068016,-0.007941247895359993
15325017,-0.6785969734191895,0.2010657638311386,9.96412467956543,0.028099801391363144,-0.04245513305068016,-0.007941247895359993
15325997,-0.4787279963493347,0.10172969847917557,10.066452980041504,0.028099801391363144,-0.04245513305068016,-0.007941247895359993
15327015,-0.26689085364341736,0.037699829787015915,10.067649841308594,0.028099801391363144,-0.04245513305068016,-0.007941247895359993
15328015,-0.4386345446109772,-0.09873764961957932,9.993447303771973,0.028099801391363144,-0.04245513305068016,-0.007941247895359993
15328979,-0.3446841537952423,-0.10651697963476181,10.117916107177734,0.028099801391363144,-0.04245513305068016,-0.007941247895359993
15329946,-0.34588098526000977,-0.09155672788619995,10.168781280517578,0.028099801391363144,-0.04245513305068016,-0.007941247895359993
15330913,-0.2501353919506073,-0.08796627074480057,10.252558708190918,0.028099801391363144,-0.04245513305068016,-0.007941247895359993
15331880,-0.3602428138256073,0.06402987241744995,10.02037525177002,0.028099801391363144,-0.04245513305068016,-0.007941247895359993
15333322,-0.37879353761672974,0.01436183974146843,10.055682182312012,0.028099801391363144,-0.04245513305068016,-0.007941247895359993
15334497,-0.4021315276622772,-0.08138375729322433,10.122105598449707,0.028099801391363144,-0.04245513305068016,-0.007941247895359993
15335472,-0.44222500920295715,0.004787280224263668,10.060468673706055,0.028099801391363144,-0.04245513305068016,-0.007941247895359993
15336443,-0.33331435918807983,-0.025133220478892326,10.161600112915039,0.028099801391363144,-0.04245513305068016,-0.007941247895359993
15337414,-0.46556299924850464,0.0610378198325634,10.028155326843262,0.028099801391363144,-0.04245513305068016,-0.007941247895359993
15338385,-0.5822529196739197,0.12446928024291992,10.147836685180664,0.028099801391363144,-0.04245513305068016,-0.007941247895359993
15339355,-0.6648335456848145,0.26449722051620483,10.222638130187988,0.028099801391363144,-0.04245513305068016,-0.007941247895359993
15340534,-0.3763999044895172,0.024534810334444046,10.172371864318848,0.028099801391363144,-0.04245513305068016,-0.007941247895359993
15341670,-0.19388484954833984,-0.08976150304079056,10.091586112976074,0.028099801391363144,-0.04245513305068016,-0.007941247895359993
15342856,-0.10711538791656494,-0.18550710380077362,10.085003852844238,0.028099801391363144,-0.04245513305068016,-0.007941247895359993
15343957,-0.010172969661653042,-0.1555866003036499,10.073634147644043,0.028099801391363144,-0.04245513305068016,-0.007941247895359993
15345091,-0.22799421846866608,-0.06402987241744995,10.026359558105469,0.028099801391363144,-0.04245513305068016,-0.007941247895359993
15346359,-0.24534809589385986,0.07001397013664246,10.229819297790527,0.028099801391363144,-0.04245513305068016,-0.007941247895359993
15347559,-0.45957887172698975,0.12746132910251617,10.104751586914062,0.028099801391363144,-0.04245513305068016,-0.007941247895359993
15348619,-0.09395036846399307,-0.07300601899623871,10.217850685119629,0.028099801391363144,-0.04245513305068016,-0.007941247895359993
15349584,-0.21722283959388733,-0.17653095722198486,10.087995529174805,0.028099801391363144,-0.04245513305068016,-0.007941247895359993
15350547,-0.3524634838104248,0.023936400189995766,10.199898719787598,0.028099801391363144,-0.04245513305068016,-0.007941247895359993
15351515,-0.5266007781028748,0.15857864916324615,10.208276748657227,0.028099801391363144,-0.04245513305068016,-0.007941247895359993
15352687,-0.5732767581939697,0.2303878515958786,10.152624130249023,0.028099801391363144,-0.04245513305068016,-0.007941247895359993
15353821,-0.6732112765312195,0.21782124042510986,10.21186637878418,0.028099801391363144,-0.04245513305068016,-0.007941247895359993
15354793,-0.6648335456848145,0.12865814566612244,10.169978141784668,0.028099801391363144,-0.04245513305068016,-0.007941247895359993
15355756,-0.4194854199886322,-0.17294049263000488,10.140655517578125,0.028099801391363144,-0.04245513305068016,-0.007941247895359993
15356721,-0.3369048237800598,-0.07599806785583496,10.148435592651367,0.028099801391363144,-0.04245513305068016,-0.007941247895359993
15357689,-0.3309207260608673,-0.0005984100280329585,10.192119598388672,0.028099801391363144,-0.04245513305068016,-0.007941247895359993
15358658,-0.23337990045547485,0.11130426079034805,10.191520690917969,0.028099801391363144,-0.04245513305068016,-0.007941247895359993
15359711,-0.2321830838918686,0.0867694541811943,10.302824974060059,0.028099801391363144,-0.04245513305068016,-0.007941247895359993
15360869,-0.07180920243263245,0.020944349467754364,10.125696182250977,0.028099801391363144,-0.04245513305068016,-0.007941247895359993
15361861,0.0335109606385231,-0.2106403261423111,10.019777297973633,0.028099801391363144,-0.04245513305068016,-0.007941247895359993
15362827,0.05984099954366684,-0.2656940519809723,10.231614112854004,0.028099801391363144,-0.04245513305068016,-0.007941247895359993
15363789,-0.04547915980219841,-0.17174367606639862,10.052091598510742,0.028099801391363144,-0.04245513305068016,-0.007941247895359993
15364753,0.02992049977183342,-0.20764827728271484,10.202890396118164,0.028099801391363144,-0.04245513305068016,-0.007941247895359993
15365716,0.12746132910251617,-0.2579147219657898,10.253755569458008,0.028099801391363144,-0.04245513305068016,-0.007941247895359993
15366918,0.052660081535577774,-0.3566523492336273,10.117916107177734,0.028099801391363144,-0.04245513305068016,-0.007941247895359993
15367963,0.023337990045547485,-0.25851312279701233,10.206480979919434,0.028099801391363144,-0.04245513305068016,-0.007941247895359993
15368931,-0.05804577097296715,-0.2752686142921448,10.146041870117188,0.028099801391363144,-0.04245513305068016,-0.007941247895359993
15370130,-0.24953697621822357,-0.0748012512922287,10.028155326843262,0.01618792861700058,-0.056810468435287476,-0.13041973114013672
15371318,-0.15977546572685242,-0.05684895068407059,10.176560401916504,0.01618792861700058,-0.056810468435287476,-0.13041973114013672
15372510,-0.1280597448348999,-0.24115923047065735,10.120908737182617,0.01618792861700058,-0.056810468435287476,-0.13041973114013672
15373705,0.10711538791656494,-0.49727872014045715,10.063461303710938,0.01618792861700058,-0.056810468435287476,-0.13041973114013672
15374756,0.01436183974146843,-0.29262250661849976,9.944975852966309,0.01618792861700058,-0.056810468435287476,-0.13041973114013672
15375722,-0.0885646790266037,-0.1986721158027649,10.192119598388672,0.01618792861700058,-0.056810468435287476,-0.13041973114013672
15376689,-0.023936400189995766,-0.14062635600566864,10.103554725646973,0.01618792861700058,-0.056810468435287476,-0.13041973114013672
15377655,-0.027526861056685448,-0.17772777378559113,10.169978141784668,0.01618792861700058,-0.056810468435287476,-0.13041973114013672
15378620,0.009574560448527336,-0.21363237500190735,10.179553031921387,0.01618792861700058,-0.056810468435287476,-0.13041973114013672
15379867,-0.024534810334444046,-0.33151915669441223,10.179553031921387,0.01618792861700058,-0.056810468435287476,-0.13041973114013672
15381106,0.09574560075998306,-0.2710797190666199,10.118515014648438,0.01618792861700058,-0.056810468435287476,-0.13041973114013672
15382194,-0.04667598009109497,-0.31237003207206726,10.189725875854492,0.01618792861700058,-0.056810468435287476,-0.13041973114013672
15383174,0.010172969661653042,-0.15678341686725616,10.083806991577148,0.01618792861700058,-0.056810468435287476,-0.13041973114013672
15384130,-0.01615707017481327,-0.3225429952144623,10.131081581115723,0.01618792861700058,-0.056810468435287476,-0.13041973114013672
15385096,0.07599806785583496,-0.37699830532073975,9.96651840209961,0.01618792861700058,-0.056810468435287476,-0.13041973114013672
15386062,0.21961647272109985,-0.5690879225730896,10.033540725708008,0.01618792861700058,-0.056810468435287476,-0.13041973114013672
15387380,0.25851312279701233,-0.5744736194610596,10.105948448181152,0.01618792861700058,-0.056810468435287476,-0.13041973114013672
15388550,0.10352493077516556,-0.46376776695251465,10.18433952331543,0.01618792861700058,-0.056810468435287476,-0.13041973114013672
15389588,0.19747529923915863,-0.4643661677837372,10.087397575378418,0.01618792861700058,-0.056810468435287476,-0.13041973114013672
15390555,0.4434218108654022,-0.4607757031917572,10.201095581054688,0.01618792861700058,-0.056810468435287476,-0.13041973114013672
15391522,0.12028041481971741,-0.5421594381332397,10.10415267944336,0.01618792861700058,-0.056810468435287476,-0.13041973114013672
15392493,0.10113129019737244,-0.38717126846313477,10.173568725585938,0.01618792861700058,-0.056810468435287476,-0.13041973114013672
15393672,0.10292652249336243,-0.45359477400779724,10.081413269042969,0.01618792861700058,-0.056810468435287476,-0.13041973114013672
15394737,-0.05744735896587372,-0.28065428137779236,10.098767280578613,0.01618792861700058,-0.056810468435287476,-0.13041973114013672
15395696,-0.11250108480453491,-0.3530619144439697,10.126294136047363,0.01618792861700058,-0.056810468435287476,-0.13041973114013672
15396659,-0.23278149962425232,-0.22021488845348358,10.07423210144043,0.01618792861700058,-0.056810468435287476,-0.13041973114013672
15397616,-0.4176901876926422,-0.19029438495635986,10.107743263244629,0.01618792861700058,-0.056810468435287476,-0.13041973114013672
15398575,-0.17473572492599487,-0.1555866003036499,10.21066951751709,0.01618792861700058,-0.056810468435287476,-0.13041973114013672
15399796,-0.1376343071460724,-0.1298549771308899,10.120908737182617,0.01618792861700058,-0.056810468435287476,-0.13041973114013672
15401019,-0.15977546572685242,-0.1711452603340149,10.013195037841797,0.01618792861700058,-0.056810468435287476,-0.13041973114013672
15402231,-0.2184196561574936,-0.0688171535730362,10.099365234375,0.01618792861700058,-0.056810468435287476,-0.13041973114013672
15403401,-0.35126668214797974,-0.09514719247817993,10.150829315185547,0.01618792861700058,-0.056810468435287476,-0.13041973114013672
15404586,-0.41230449080467224,-0.08437581360340118,10.142451286315918,0.01618792861700058,-0.056810468435287476,-0.13041973114013672
15405785,-0.24355287849903107,-0.15798024833202362,9.958141326904297,0.01618792861700058,-0.056810468435287476,-0.13041973114013672
15406839,-0.27467018365859985,-0.19388484954833984,10.064658164978027,0.01618792861700058,-0.056810468435287476,-0.13041973114013672
15407808,-0.3740062415599823,-0.052660081535577774,9.971904754638672,0.01618792861700058,-0.056810468435287476,-0.13041973114013672
15408771,-0.2638988196849823,-0.18191663920879364,10.031147003173828,0.01618792861700058,-0.056810468435287476,-0.13041973114013672
15409922,-0.039495062083005905,-0.27467018365859985,10.170576095581055,0.01618792861700058,-0.056810468435287476,-0.13041973114013672
15411113,0.0748012512922287,-0.36323487758636475,10.142451286315918,0.01618792861700058,-0.056810468435287476,-0.13041973114013672
15412166,-0.038298241794109344,-0.29860660433769226,10.114924430847168,0.01618792861700058,-0.056810468435287476,-0.13041973114013672
15413138,-0.07360442727804184,-0.3363064229488373,10.073634147644043,0.01618792861700058,-0.056810468435287476,-0.13041973114013672
15414109,0.001196820056065917,-0.24355287849903107,10.142451286315918,0.01618792861700058,-0.056810468435287476,-0.13041973114013672
15415211,-0.1873023360967636,-0.33989688754081726,10.117916107177734,0.01618792861700058,-0.056810468435287476,-0.13041973114013672
15416212,-0.004787280224263668,-0.3853760361671448,10.125097274780273,0.01618792861700058,-0.056810468435287476,-0.13041973114013672
15417397,-0.05804577097296715,-0.24714332818984985,10.161600112915039,0.01618792861700058,-0.056810468435287476,-0.13041973114013672
15418556,-0.21722283959388733,-0.21722283959388733,10.128687858581543,0.01618792861700058,-0.056810468435287476,-0.13041973114013672
15419743,-0.21004191040992737,-0.005984100047498941,10.059870719909668,0.01618792861700058,-0.056810468435287476,-0.13041973114013672
15420950,-0.5032628178596497,-0.018550710752606392,10.158608436584473,0.01618792861700058,-0.056810468435287476,-0.13041973114013672
15422146,-0.6361098289489746,0.0472743920981884,10.174166679382324,0.01618792861700058,-0.056810468435287476,-0.13041973114013672
15423322,-0.6558573842048645,0.18251505494117737,10.07662582397461,0.01618792861700058,-0.056810468435287476,-0.13041973114013672
15424538,-0.5260024070739746,0.10651697963476181,10.121506690979004,0.01618792861700058,-0.056810468435287476,-0.13041973114013672
15425606,-0.41230449080467224,-0.004188870079815388,10.12808895111084,0.01618792861700058,-0.056810468435287476,-0.13041973114013672
15426574,-0.4709486663341522,0.10113129019737244,10.110136985778809,0.01618792861700058,-0.056810468435287476,-0.13041973114013672
15427540,-0.29022884368896484,-0.06283304840326309,10.161002159118652,0.01618792861700058,-0.056810468435287476,-0.13041973114013672
15428522,-0.14601203799247742,-0.05684895068407059,10.141254425048828,0.01618792861700058,-0.056810468435287476,-0.13041973114013672
15429747,-0.2525290250778198,-0.08976150304079056,10.055682182312012,0.01618792861700058,-0.056810468435287476,-0.13041973114013672
15430931,-0.22320693731307983,0.05864417925477028,10.146041870117188,0.01618792861700058,-0.056810468435287476,-0.13041973114013672
15431978,-0.27706384658813477,-0.1555866003036499,10.171175003051758,0.01618792861700058,-0.056810468435287476,-0.13041973114013672
15432955,-0.4494059085845947,-0.07061237841844559,10.064059257507324,0.01618792861700058,-0.056810468435287476,-0.13041973114013672
15433926,-0.4667598009109497,0.06582509726285934,10.153820991516113,0.01618792861700058,-0.056810468435287476,-0.13041973114013672
15434897,-0.5852450132369995,0.026928450912237167,10.080216407775879,0.01618792861700058,-0.056810468435287476,-0.13041973114013672
15435910,-0.6606446504592896,0.16994844377040863,10.088594436645508,0.01618792861700058,-0.056810468435287476,-0.13041973114013672
15436889,-0.7557918429374695,0.23278149962425232,10.094578742980957,0.01618792861700058,-0.056810468435287476,-0.13041973114013672
15437860,-0.6283305287361145,0.18012140691280365,10.141852378845215,0.01618792861700058,-0.056810468435287476,-0.13041973114013672
15438825,-0.5643006563186646,0.28484317660331726,10.165190696716309,0.01618792861700058,-0.056810468435287476,-0.13041973114013672
15439789,-0.6989428997039795,0.16456274688243866,10.148435592651367,0.01618792861700058,-0.056810468435287476,-0.13041973114013672
15440756,-0.4918930232524872,0.20824667811393738,10.098767280578613,0.01618792861700058,-0.056810468435287476,-0.13041973114013672
15441724,-0.6265352964401245,0.20525462925434113,10.127490997314453,0.01618792861700058,-0.056810468435287476,-0.13041973114013672
15442839,-0.5152310132980347,0.16097229719161987,10.093381881713867,0.01618792861700058,-0.056810468435287476,-0.13041973114013672
15443962,-0.41409972310066223,0.0885646790266037,10.07542896270752,0.01618792861700058,-0.056810468435287476,-0.13041973114013672
15445169,-0.28065428137779236,-0.06283304840326309,10.056280136108398,0.01618792861700058,-0.056810468435287476,-0.13041973114013672
15446375,0.006582510191947222,-0.15319296717643738,10.082012176513672,0.01618792861700058,-0.056810468435287476,-0.13041973114013672
15447411,-0.09933605790138245,-0.06163623183965683,9.953353881835938,0.01618792861700058,-0.056810468435287476,-0.13041973114013672
15448370,-0.008976150304079056,-0.16456274688243866,10.071240425109863,0.029626963660120964,-0.04214970022439957,-0.02626720443367958
15449341,0.0035904599353671074,-0.0963440090417862,10.12928581237793,0.029626963660120964,-0.04214970022439957,-0.02626720443367958
15450313,0.0005984100280329585,-0.30399227142333984,10.257944107055664,0.029626963660120964,-0.04214970022439957,-0.02626720443367958
15451280,-0.04667598009109497,-0.21961647272109985,10.143049240112305,0.029626963660120964,-0.04214970022439957,-0.02626720443367958
15452457,-0.13464225828647614,-0.3542587161064148,10.012596130371094,0.029626963660120964,-0.04214970022439957,-0.02626720443367958
15453576,-0.19448325037956238,-0.3363064229488373,9.9892578125,0.029626963660120964,-0.04214970022439957,-0.02626720443367958
15454548,-0.23756876587867737,-0.1693500280380249,10.137065887451172,0.029626963660120964,-0.04214970022439957,-0.02626720443367958
15455513,-0.3823840022087097,-0.15678341686725616,10.067051887512207,0.029626963660120964,-0.04214970022439957,-0.02626720443367958
15456472,-0.4631693363189697,0.03231414034962654,10.229819297790527,0.029626963660120964,-0.04214970022439957,-0.02626720443367958
15457437,-0.5415610671043396,0.12087882310152054,10.177757263183594,0.029626963660120964,-0.04214970022439957,-0.02626720443367958
15458402,-0.5487419962882996,-0.04966802895069122,10.037131309509277,0.029626963660120964,-0.04214970022439957,-0.02626720443367958
15459364,-0.47513753175735474,0.01795230060815811,10.024564743041992,0.029626963660120964,-0.04214970022439957,-0.02626720443367958
15460335,-0.31596049666404724,-0.1160915419459343,10.110735893249512,0.029626963660120964,-0.04214970022439957,-0.02626720443367958
15461304,-0.07240761071443558,-0.2166244238615036,10.226826667785645,0.029626963660120964,-0.04214970022439957,-0.02626720443367958
15462269,-0.21423077583312988,-0.09813924133777618,10.204087257385254,0.029626963660120964,-0.04214970022439957,-0.02626720443367958
15463234,-0.14242158830165863,-0.17174367606639862,10.133475303649902,0.029626963660120964,-0.04214970022439957,-0.02626720443367958
15464188,0.04069187864661217,-0.18610551953315735,10.219047546386719,0.029626963660120964,-0.04214970022439957,-0.02626720443367958
15465160,0.3249366283416748,-0.47753119468688965,10.179553031921387,0.029626963660120964,-0.04214970022439957,-0.02626720443367958
15466128,0.09215514361858368,-0.22560057044029236,10.190922737121582,0.029626963660120964,-0.04214970022439957,-0.02626720443367958
15467254,0.14661045372486115,-0.33211755752563477,10.21306324005127,0.029626963660120964,-0.04214970022439957,-0.02626720443367958
15468369,-0.03470778092741966,-0.3799903690814972,10.223236083984375,0.029626963660120964,-0.04214970022439957,-0.02626720443367958
15469389,-0.24774174392223358,-0.26449722051620483,10.207677841186523,0.029626963660120964,-0.04214970022439957,-0.02626720443367958
15470345,-0.42068222165107727,-0.11788677424192429,10.152026176452637,0.029626963660120964,-0.04214970022439957,-0.02626720443367958
15471319,-0.38717126846313477,-0.01555866003036499,9.981478691101074,0.029626963660120964,-0.04214970022439957,-0.02626720443367958
15472294,-0.4368393123149872,-0.06163623183965683,10.07423210144043,0.029626963660120964,-0.04214970022439957,-0.02626720443367958
15473261,-0.3620380461215973,-0.028125271201133728,10.161002159118652,0.029626963660120964,-0.04214970022439957,-0.02626720443367958
15474229,-0.4254695177078247,0.04488075152039528,10.119112968444824,0.029626963660120964,-0.04214970022439957,-0.02626720443367958
15475340,-0.31955093145370483,-0.1986721158027649,10.253755569458008,0.029626963660120964,-0.04214970022439957,-0.02626720443367958
15476385,-0.5517340302467346,0.16635797917842865,10.093979835510254,0.029626963660120964,-0.04214970022439957,-0.02626720443367958
15477355,-0.6462827920913696,0.3303223252296448,10.12928581237793,0.029626963660120964,-0.04214970022439957,-0.02626720443367958
15478722,-0.4129028916358948,0.1908927857875824,10.112530708312988,0.029626963660120964,-0.04214970022439957,-0.02626720443367958
15479873,-0.46197253465652466,0.11070585250854492,10.016186714172363,0.029626963660120964,-0.04214970022439957,-0.02626720443367958
15480906,-0.2321830838918686,-0.17294049263000488,10.093979835510254,0.029626963660120964,-0.04214970022439957,-0.02626720443367958
15481878,0.037699829787015915,-0.3387000560760498,10.070043563842773,0.029626963660120964,-0.04214970022439957,-0.02626720443367958
15482873,-0.005984100047498941,-0.3225429952144623,9.927023887634277,0.029626963660120964,-0.04214970022439957,-0.02626720443367958
15484194,0.2381671816110611,-0.4410281777381897,10.177757263183594,0.029626963660120964,-0.04214970022439957,-0.02626720443367958
15485261,0.5260024070739746,-0.6187559366226196,10.21306324005127,0.029626963660120964,-0.04214970022439957,-0.02626720443367958
15486236,0.2561194896697998,-0.47334232926368713,10.096373558044434,0.029626963660120964,-0.04214970022439957,-0.02626720443367958
15487357,0.10891062021255493,-0.39854106307029724,10.158608436584473,0.029626963660120964,-0.04214970022439957,-0.02626720443367958
15488361,-0.04428233951330185,-0.2633003890514374,10.13048267364502,0.029626963660120964,-0.04214970022439957,-0.02626720443367958
15489589,0.038298241794109344,-0.5816545486450195,10.003021240234375,0.029626963660120964,-0.04214970022439957,-0.02626720443367958
15490785,-0.07001397013664246,-0.40452516078948975,9.952157020568848,0.029626963660120964,-0.04214970022439957,-0.02626720443367958
15491961,-0.1555866003036499,-0.2615051865577698,10.145442962646484,0.029626963660120964,-0.04214970022439957,-0.02626720443367958
15493144,-0.06522668898105621,-0.3249366283416748,10.0778226852417,0.029626963660120964,-0.04214970022439957,-0.02626720443367958
15494342,-0.06522668898105621,-0.1478072702884674,10.112530708312988,0.029626963660120964,-0.04214970022439957,-0.02626720443367958
15495534,-0.4667598009109497,0.09813924133777618,10.163395881652832,0.029626963660120964,-0.04214970022439957,-0.02626720443367958
15496744,-0.3285270929336548,0.0029920500237494707,10.174765586853027,0.029626963660120964,-0.04214970022439957,-0.02626720443367958
15497808,-0.1496025025844574,-0.14720885455608368,10.163395881652832,0.029626963660120964,-0.04214970022439957,-0.02626720443367958
15498770,0.03291254863142967,-0.3530619144439697,10.101161003112793,0.029626963660120964,-0.04214970022439957,-0.02626720443367958
15499994,0.15857864916324615,-0.46137410402297974,10.02037525177002,0.029626963660120964,-0.04214970022439957,-0.02626720443367958
15501178,0.11130426079034805,-0.41828858852386475,10.099964141845703,0.029626963660120964,-0.04214970022439957,-0.02626720443367958
15502398,-0.055652130395174026,-0.2106403261423111,10.172371864318848,0.029626963660120964,-0.04214970022439957,-0.02626720443367958
15503644,-0.11250108480453491,-0.18610551953315735,10.064658164978027,0.029626963660120964,-0.04214970022439957,-0.02626720443367958
15504874,-0.3153620660305023,-0.07599806785583496,10.008407592773438,0.029626963660120964,-0.04214970022439957,-0.02626720443367958
15505938,-0.3111732006072998,-0.008377740159630775,10.114325523376465,0.029626963660120964,-0.04214970022439957,-0.02626720443367958
15507176,-0.41409972310066223,0.06762032955884933,10.207677841186523,0.029626963660120964,-0.04214970022439957,-0.02626720443367958
15508363,-0.43983134627342224,0.18012140691280365,10.150230407714844,0.029626963660120964,-0.04214970022439957,-0.02626720443367958
15509541,-0.28484317660331726,0.07899012416601181,10.041918754577637,0.029626963660120964,-0.04214970022439957,-0.02626720443367958
15510723,-0.5966147780418396,0.09514719247817993,10.13048267364502,0.029626963660120964,-0.04214970022439957,-0.02626720443367958
15511893,-0.4883025586605072,0.2226085215806961,10.062862396240234,0.029626963660120964,-0.04214970022439957,-0.02626720443367958
15512952,-0.5032628178596497,0.23098626732826233,10.141254425048828,0.029626963660120964,-0.04214970022439957,-0.02626720443367958
15513921,-0.3853760361671448,0.11190266907215118,10.195709228515625,0.029626963660120964,-0.04214970022439957,-0.02626720443367958
15514888,-0.3051891028881073,-0.03470778092741966,10.15920639038086,0.029626963660120964,-0.04214970022439957,-0.02626720443367958
15515857,-0.5601117610931396,0.03111732006072998,10.120309829711914,0.029626963660120964,-0.04214970022439957,-0.02626720443367958
15516819,-0.5529308319091797,0.17294049263000488,10.125097274780273,0.029626963660120964,-0.04214970022439957,-0.02626720443367958
15518066,-0.4308552145957947,-0.02872367948293686,10.093381881713867,0.029626963660120964,-0.04214970022439957,-0.02626720443367958
15519256,-0.0825805813074112,-0.4308552145957947,9.978487014770508,0.029626963660120964,-0.04214970022439957,-0.02626720443367958
15520475,-0.17772777378559113,-0.2621035873889923,10.061067581176758,0.029626963660120964,-0.04214970022439957,-0.02626720443367958
15521677,-0.039495062083005905,-0.24774174392223358,10.173568725585938,0.029626963660120964,-0.04214970022439957,-0.02626720443367958
15522844,0.07779330015182495,-0.39495059847831726,10.128687858581543,0.029626963660120964,-0.04214970022439957,-0.02626720443367958
15524078,0.24115923047065735,-0.6193543672561646,10.099964141845703,0.029626963660120964,-0.04214970022439957,-0.02626720443367958
15525141,0.0412902906537056,-0.4434218108654022,10.103554725646973,0.028099801391363144,-0.04642575979232788,0.09926560521125793
15526116,-0.08198217302560806,-0.2028609961271286,10.2429838180542,0.028099801391363144,-0.04642575979232788,0.09926560521125793
15527090,-0.39854106307029724,-0.02872367948293686,10.125097274780273,0.028099801391363144,-0.04642575979232788,0.09926560521125793
15528058,-0.46197253465652466,0.019149120897054672,10.15920639038086,0.028099801391363144,-0.04642575979232788,0.09926560521125793
15529023,-0.5218135118484497,0.019747531041502953,10.057476997375488,0.028099801391363144,-0.04642575979232788,0.09926560521125793
15530333,-0.35366031527519226,-0.026928450912237167,10.15561580657959,0.028099801391363144,-0.04642575979232788,0.09926560521125793
15531563,-0.3470778167247772,-0.07001397013664246,10.140655517578125,0.028099801391363144,-0.04642575979232788,0.09926560521125793
15532631,-0.40093469619750977,0.11848518252372742,10.089192390441895,0.028099801391363144,-0.04642575979232788,0.09926560521125793
15533600,-0.41649335622787476,-0.11549313366413116,10.244180679321289,0.028099801391363144,-0.04642575979232788,0.09926560521125793
15534566,-0.04188869893550873,-0.28843361139297485,10.295045852661133,0.028099801391363144,-0.04642575979232788,0.09926560521125793
15535539,-0.020345939323306084,-0.5158294439315796,10.253755569458008,0.028099801391363144,-0.04642575979232788,0.09926560521125793
15536506,-0.14301998913288116,-0.4918930232524872,10.078421592712402,0.028099801391363144,-0.04642575979232788,0.09926560521125793
15537523,-0.28304794430732727,-0.20166417956352234,10.166387557983398,0.028099801391363144,-0.04642575979232788,0.09926560521125793
15538535,-0.1813182383775711,-0.09335196018218994,10.183741569519043,0.028099801391363144,-0.04642575979232788,0.09926560521125793
15539506,-0.18012140691280365,-0.0029920500237494707,10.15561580657959,0.028099801391363144,-0.04642575979232788,0.09926560521125793
15540471,-0.2285926192998886,-0.15618501603603363,10.090988159179688,0.028099801391363144,-0.04642575979232788,0.09926560521125793
15541439,-0.32553502917289734,-0.06462828069925308,10.121506690979004,0.028099801391363144,-0.04642575979232788,0.09926560521125793
15542408,-0.4051235616207123,0.1005328819155693,10.158608436584473,0.028099801391363144,-0.04642575979232788,0.09926560521125793
15543361,-0.7174935936927795,0.13464225828647614,10.161002159118652,0.028099801391363144,-0.04642575979232788,0.09926560521125793
15544526,-0.7282649874687195,0.33570802211761475,10.083806991577148,0.028099801391363144,-0.04642575979232788,0.09926560521125793
15545940,-0.6379050612449646,0.2579147219657898,10.257944107055664,0.028099801391363144,-0.04642575979232788,0.09926560521125793
15547011,-0.4033283591270447,0.005984100047498941,10.174166679382324,0.028099801391363144,-0.04642575979232788,0.09926560521125793
15547982,-0.6480780243873596,0.1986721158027649,10.190922737121582,0.028099801391363144,-0.04642575979232788,0.09926560521125793
15548947,-0.7689568400382996,0.19448325037956238,10.158608436584473,0.028099801391363144,-0.04642575979232788,0.09926560521125793
15549912,-0.42008382081985474,-0.06941556185483932,10.244779586791992,0.028099801391363144,-0.04642575979232788,0.09926560521125793
15550877,-0.1926880180835724,-0.0017952299676835537,10.150829315185547,0.028099801391363144,-0.04642575979232788,0.09926560521125793
15551849,0.007180919870734215,-0.2537258565425873,10.169978141784668,0.028099801391363144,-0.04642575979232788,0.09926560521125793
15552809,0.29980340600013733,-0.2046562284231186,10.211268424987793,0.028099801391363144,-0.04642575979232788,0.09926560521125793
15553768,0.019747531041502953,-0.20585304498672485,10.238795280456543,0.028099801391363144,-0.04642575979232788,0.09926560521125793
15554728,-0.11070585250854492,-0.028125271201133728,10.174765586853027,0.028099801391363144,-0.04642575979232788,0.09926560521125793
15555690,-0.3817855715751648,0.09095831960439682,10.191520690917969,0.028099801391363144,-0.04642575979232788,0.09926560521125793
15556837,-0.4799248278141022,0.14242158830165863,10.043115615844727,0.028099801391363144,-0.04642575979232788,0.09926560521125793
15557909,-0.3482746183872223,0.03470778092741966,10.15681266784668,0.028099801391363144,-0.04642575979232788,0.09926560521125793
15558895,-0.6953524351119995,0.019149120897054672,10.014989852905273,0.028099801391363144,-0.04642575979232788,0.09926560521125793
15559863,-0.7192888259887695,0.25492265820503235,10.008407592773438,0.028099801391363144,-0.04642575979232788,0.09926560521125793
15560823,-0.7581855058670044,0.4332488477230072,10.342320442199707,0.028099801391363144,-0.04642575979232788,0.09926560521125793
15561783,-0.3997378945350647,0.1316501945257187,10.149033546447754,0.028099801391363144,-0.04642575979232788,0.09926560521125793
15562743,-0.0412902906537056,0.1537913680076599,10.056879043579102,0.028099801391363144,-0.04642575979232788,0.09926560521125793
15563705,0.3763999044895172,-0.24056082963943481,10.083806991577148,0.028099801391363144,-0.04642575979232788,0.09926560521125793
15565106,0.4051235616207123,-0.23158466815948486,9.950361251831055,0.028099801391363144,-0.04642575979232788,0.09926560521125793
15566356,0.08497422188520432,-0.24774174392223358,10.18553638458252,0.028099801391363144,-0.04642575979232788,0.09926560521125793
15567626,-0.2621035873889923,-0.30040183663368225,10.21426010131836,0.028099801391363144,-0.04642575979232788,0.09926560521125793
15568781,-0.4847120940685272,-0.09813924133777618,10.125696182250977,0.028099801391363144,-0.04642575979232788,0.09926560521125793
15569998,-0.42786315083503723,-0.12267404794692993,10.057476997375488,0.028099801391363144,-0.04642575979232788,0.09926560521125793
15571175,-0.1711452603340149,-0.0610378198325634,10.356681823730469,0.028099801391363144,-0.04642575979232788,0.09926560521125793
15572378,-0.3440857529640198,0.10113129019737244,10.219646453857422,0.028099801391363144,-0.04642575979232788,0.09926560521125793
15573567,-0.32553502917289734,0.0335109606385231,10.133475303649902,0.028099801391363144,-0.04642575979232788,0.09926560521125793
15574736,-0.4021315276622772,0.19627848267555237,10.060468673706055,0.028099801391363144,-0.04642575979232788,0.09926560521125793
15575927,-0.2459465116262436,-0.08198217302560806,9.886930465698242,0.028099801391363144,-0.04642575979232788,0.09926560521125793
15577136,0.26449722051620483,-0.5379706025123596,10.121506690979004,0.028099801391363144,-0.04642575979232788,0.09926560521125793
15578199,-0.15020091831684113,-0.14720885455608368,10.146639823913574,0.028099801391363144,-0.04642575979232788,0.09926560521125793
15579175,-0.2878352105617523,-0.0029920500237494707,10.146639823913574,0.028099801391363144,-0.04642575979232788,0.09926560521125793
15580134,-0.004787280224263668,-0.20944350957870483,10.095176696777344,0.028099801391363144,-0.04642575979232788,0.09926560521125793
15581108,0.20944350957870483,-0.5415610671043396,10.079019546508789,0.028099801391363144,-0.04642575979232788,0.09926560521125793
15582082,0.21183714270591736,-0.5858433842658997,10.192717552185059,0.028099801391363144,-0.04642575979232788,0.09926560521125793
15583230,-0.33151915669441223,-0.2752686142921448,10.173568725585938,0.028099801391363144,-0.04642575979232788,0.09926560521125793
15584293,-0.4547916054725647,-0.11010744422674179,10.18553638458252,0.028099801391363144,-0.04642575979232788,0.09926560521125793
15585266,-0.15020091831684113,-0.42427268624305725,10.274101257324219,0.028099801391363144,-0.04642575979232788,0.09926560521125793
15586334,0.026928450912237167,-0.3422905206680298,9.979683876037598,0.028099801391363144,-0.04642575979232788,0.09926560521125793
15587452,0.09215514361858368,-0.4996723532676697,10.067051887512207,0.028099801391363144,-0.04642575979232788,0.09926560521125793
15588439,0.1753341257572174,-0.42427268624305725,10.012596130371094,0.028099801391363144,-0.04642575979232788,0.09926560521125793
15589411,-0.17952300608158112,-0.20944350957870483,10.292652130126953,0.028099801391363144,-0.04642575979232788,0.09926560521125793
15590364,-0.16456274688243866,0.009574560448527336,10.093381881713867,0.028099801391363144,-0.04642575979232788,0.09926560521125793
15591336,-0.1693500280380249,-0.12746132910251617,10.132278442382812,0.028099801391363144,-0.04642575979232788,0.09926560521125793
15592309,0.16635797917842865,-0.4332488477230072,10.133475303649902,0.028099801391363144,-0.04642575979232788,0.09926560521125793
15593493,0.01615707017481327,-0.46556299924850464,10.180150985717773,0.028099801391363144,-0.04642575979232788,0.09926560521125793
15594541,-0.0305189099162817,-0.6720144152641296,10.04670524597168,0.028099801391363144,-0.04642575979232788,0.09926560521125793
15595509,-0.08976150304079056,-0.5200182795524597,10.089192390441895,0.028099801391363144,-0.04642575979232788,0.09926560521125793
15596472,-0.36742374300956726,-0.3740062415599823,10.183741569519043,0.028099801391363144,-0.04642575979232788,0.09926560521125793
15597440,-0.4625709354877472,-0.16037388145923615,10.142451286315918,0.028099801391363144,-0.04642575979232788,0.09926560521125793
15598544,-0.5254039764404297,-0.0867694541811943,10.111333847045898,0.028099801391363144,-0.04642575979232788,0.09926560521125793
15599563,-0.3817855715751648,-0.13524065911769867,10.142451286315918,0.028099801391363144,-0.04642575979232788,0.09926560521125793
15600538,-0.14661045372486115,-0.2950161397457123,10.0443115234375,0.028099801391363144,-0.04642575979232788,0.09926560521125793
15601507,0.11309949308633804,-0.4805232286453247,10.110136985778809,0.028099801391363144,-0.04642575979232788,0.09926560521125793
15602751,0.34947144985198975,-0.33989688754081726,10.150829315185547,0.028405234217643738,-0.044287730008363724,0.0027488935738801956
15603797,0.08976150304079056,-0.20944350957870483,10.258543014526367,0.028405234217643738,-0.044287730008363724,0.0027488935738801956
15604901,-0.46915343403816223,0.18251505494117737,10.21426010131836,0.028405234217643738,-0.044287730008363724,0.0027488935738801956
15605938,-0.6857778429985046,0.19328643381595612,10.152624130249023,0.028405234217643738,-0.044287730008363724,0.0027488935738801956
15606908,-0.5050580501556396,-0.13942952454090118,9.985668182373047,0.028405234217643738,-0.044287730008363724,0.0027488935738801956
15607878,0.10891062021255493,-0.35725077986717224,10.085601806640625,0.028405234217643738,-0.044287730008363724,0.0027488935738801956
15608853,0.18431028723716736,-0.5367738008499146,10.18433952331543,0.028405234217643738,-0.044287730008363724,0.0027488935738801956
15609816,-0.1555866003036499,-0.3746046721935272,10.092782974243164,0.028405234217643738,-0.044287730008363724,0.0027488935738801956
15611145,-0.4918930232524872,-0.025133220478892326,10.178954124450684,0.028405234217643738,-0.044287730008363724,0.0027488935738801956
15612331,-0.2399624139070511,-0.2656940519809723,10.038926124572754,0.028405234217643738,-0.044287730008363724,0.0027488935738801956
15613565,-0.2261989861726761,-0.30040183663368225,10.029352188110352,0.028405234217643738,-0.044287730008363724,0.0027488935738801956
15614747,-0.019747531041502953,-0.25492265820503235,10.092782974243164,0.028405234217643738,-0.044287730008363724,0.0027488935738801956
15615972,-0.1771293580532074,-0.1160915419459343,10.144845008850098,0.028405234217643738,-0.044287730008363724,0.0027488935738801956
15617134,-0.5816545486450195,0.23756876587867737,10.080815315246582,0.028405234217643738,-0.044287730008363724,0.0027488935738801956
15618410,-0.6008036732673645,0.10711538791656494,10.117916107177734,0.028405234217643738,-0.044287730008363724,0.0027488935738801956
15619612,-0.33750325441360474,0.25911152362823486,10.044910430908203,0.028405234217643738,-0.044287730008363724,0.0027488935738801956
15620666,-0.2285926192998886,-0.24175764620304108,10.097570419311523,0.028405234217643738,-0.044287730008363724,0.0027488935738801956
15621790,-0.11549313366413116,-0.21123872697353363,10.141254425048828,0.028405234217643738,-0.044287730008363724,0.0027488935738801956
15622971,-0.07240761071443558,-0.1908927857875824,10.24178695678711,0.028405234217643738,-0.044287730008363724,0.0027488935738801956
15624166,-0.3033938705921173,-0.22500216960906982,10.150230407714844,0.028405234217643738,-0.044287730008363724,0.0027488935738801956
15625346,-0.44402021169662476,-0.06941556185483932,10.106546401977539,0.028405234217643738,-0.044287730008363724,0.0027488935738801956
15626531,-0.7324538230895996,0.1418231725692749,9.941984176635742,0.028405234217643738,-0.044287730008363724,0.0027488935738801956
15627689,-0.5882370471954346,0.053258489817380905,10.07662582397461,0.028405234217643738,-0.044287730008363724,0.0027488935738801956
15628866,-0.5678911209106445,-0.050864849239587784,10.007210731506348,0.028405234217643738,-0.044287730008363724,0.0027488935738801956
15630038,-0.3291254937648773,-0.005385689903050661,10.235803604125977,0.028405234217643738,-0.044287730008363724,0.0027488935738801956
15631462,-0.3464793860912323,0.08018694072961807,10.121506690979004,0.028405234217643738,-0.044287730008363724,0.0027488935738801956
15632627,-0.6839826107025146,0.40452516078948975,10.156214714050293,0.028405234217643738,-0.044287730008363724,0.0027488935738801956
15633729,-0.48172006011009216,0.08138375729322433,9.94018840789795,0.028405234217643738,-0.044287730008363724,0.0027488935738801956
15634963,-0.4033283591270447,0.012566610239446163,10.085003852844238,0.028405234217643738,-0.044287730008363724,0.0027488935738801956
15636030,-0.44820910692214966,-0.01496024988591671,10.053288459777832,0.028405234217643738,-0.044287730008363724,0.0027488935738801956
15637141,-0.44042977690696716,0.35366031527519226,10.13167953491211,0.028405234217643738,-0.044287730008363724,0.0027488935738801956
15638171,0.06941556185483932,-0.2244037538766861,10.168182373046875,0.028405234217643738,-0.044287730008363724,0.0027488935738801956
15639129,0.23517513275146484,-0.31177160143852234,10.10534954071045,0.028405234217643738,-0.044287730008363724,0.0027488935738801956
15640580,0.17473572492599487,-0.26509562134742737,10.090988159179688,0.028405234217643738,-0.044287730008363724,0.0027488935738801956
15641733,-0.09095831960439682,-0.05026644095778465,10.07303524017334,0.028405234217643738,-0.044287730008363724,0.0027488935738801956
15642709,-0.6809905767440796,0.32194459438323975,10.006611824035645,0.028405234217643738,-0.044287730008363724,0.0027488935738801956
15643680,-0.6983444690704346,0.32433822751045227,10.165789604187012,0.028405234217643738,-0.044287730008363724,0.0027488935738801956
15644638,-0.41649335622787476,-0.0945487841963768,10.208874702453613,0.028405234217643738,-0.044287730008363724,0.0027488935738801956
15645602,-0.15498818457126617,-0.09694242477416992,10.087397575378418,0.028405234217643738,-0.044287730008363724,0.0027488935738801956
15646841,0.08617103844881058,-0.3530619144439697,10.027556419372559,0.028405234217643738,-0.044287730008363724,0.0027488935738801956
15648280,-0.35126668214797974,-0.2010657638311386,10.016186714172363,0.028405234217643738,-0.044287730008363724,0.0027488935738801956
15649493,-0.4978771209716797,-0.23457671701908112,10.169379234313965,0.028405234217643738,-0.044287730008363724,0.0027488935738801956
15650665,-0.29262250661849976,-0.15857864916324615,9.951558113098145,0.028405234217643738,-0.044287730008363724,0.0027488935738801956
15651847,-0.15319296717643738,-0.2261989861726761,9.947369575500488,0.028405234217643738,-0.044287730008363724,0.0027488935738801956
15653052,0.04308551922440529,-0.23697036504745483,10.173568725585938,0.028405234217643738,-0.044287730008363724,0.0027488935738801956
15654245,-0.2633003890514374,0.13643747568130493,10.086200714111328,0.028405234217643738,-0.044287730008363724,0.0027488935738801956
15655423,-0.4434218108654022,0.2010657638311386,10.178954124450684,0.028405234217643738,-0.044287730008363724,0.0027488935738801956
15656609,-0.4158949553966522,0.037699829787015915,10.115522384643555,0.028405234217643738,-0.044287730008363724,0.0027488935738801956
15657787,-0.36143964529037476,0.01555866003036499,10.063461303710938,0.028405234217643738,-0.044287730008363724,0.0027488935738801956
15658977,-0.03231414034962654,-0.25911152362823486,10.173568725585938,0.028405234217643738,-0.044287730008363724,0.0027488935738801956
15660171,0.1675547957420349,-0.2734733819961548,10.168182373046875,0.028405234217643738,-0.044287730008363724,0.0027488935738801956
15661368,0.11848518252372742,-0.3578491806983948,10.153223037719727,0.028405234217643738,-0.044287730008363724,0.0027488935738801956
15662397,0.23158466815948486,-0.6193543672561646,10.193914413452148,0.028405234217643738,-0.044287730008363724,0.0027488935738801956
15663373,0.37340784072875977,-0.47334232926368713,10.055682182312012,0.028405234217643738,-0.044287730008363724,0.0027488935738801956
15664340,-0.04069187864661217,-0.1675547957420349,10.059870719909668,0.028405234217643738,-0.044287730008363724,0.0027488935738801956
15665312,-0.6432907581329346,-0.0017952299676835537,10.114924430847168,0.028405234217643738,-0.044287730008363724,0.0027488935738801956
15666273,-0.5038612484931946,0.0305189099162817,10.177159309387207,0.028405234217643738,-0.044287730008363724,0.0027488935738801956
15667521,-0.13823270797729492,-0.1675547957420349,10.087995529174805,0.028405234217643738,-0.044287730008363724,0.0027488935738801956
15668703,0.07001397013664246,-0.4350440800189972,9.985668182373047,0.028405234217643738,-0.044287730008363724,0.0027488935738801956
15669887,-0.04667598009109497,-0.4434218108654022,10.299833297729492,0.028405234217643738,-0.044287730008363724,0.0027488935738801956
15671070,-0.5224119424819946,-0.08916308730840683,10.051492691040039,0.028405234217643738,-0.044287730008363724,0.0027488935738801956
15672271,-0.6732112765312195,-0.12446928024291992,9.944975852966309,0.028405234217643738,-0.044287730008363724,0.0027488935738801956
15673468,-0.0688171535730362,-0.3404952883720398,10.012596130371094,0.028405234217643738,-0.044287730008363724,0.0027488935738801956
15674522,0.05864417925477028,-0.44820910692214966,10.200496673583984,0.028405234217643738,-0.044287730008363724,0.0027488935738801956
15675495,0.15857864916324615,-0.4015331268310547,10.343517303466797,0.028405234217643738,-0.044287730008363724,0.0027488935738801956
15676773,-0.3189525306224823,0.24355287849903107,10.178954124450684,0.028405234217643738,-0.044287730008363724,0.0027488935738801956
15677964,-0.4906961917877197,0.2776622474193573,10.236401557922363,0.028405234217643738,-0.044287730008363724,0.0027488935738801956
15679105,0.010172969661653042,-0.4170917868614197,10.032941818237305,0.028405234217643738,-0.044287730008363724,0.0027488935738801956
15680288,-0.0670219212770462,-0.3345111906528473,10.07542896270752,0.019853120669722557,-0.055894169956445694,-0.02168571576476097
15681511,-0.12387087196111679,-0.12147723138332367,10.1328763961792,0.019853120669722557,-0.055894169956445694,-0.02168571576476097
15682691,0.3153620660305023,-0.5648990273475647,10.065855026245117,0.019853120669722557,-0.055894169956445694,-0.02168571576476097
15683872,0.17593254148960114,-0.39854106307029724,10.143648147583008,0.019853120669722557,-0.055894169956445694,-0.02168571576476097
15685067,-0.11250108480453491,-0.21423077583312988,10.070642471313477,0.019853120669722557,-0.055894169956445694,-0.02168571576476097
15686283,-0.3488730192184448,0.023337990045547485,10.077224731445312,0.019853120669722557,-0.055894169956445694,-0.02168571576476097
15687508,-0.7312570214271545,0.040093470364809036,9.974297523498535,0.019853120669722557,-0.055894169956445694,-0.02168571576476097
15688731,-0.04667598009109497,-0.21363237500190735,10.078421592712402,0.019853120669722557,-0.055894169956445694,-0.02168571576476097
15689972,0.1436184048652649,-0.3530619144439697,10.204087257385254,0.019853120669722557,-0.055894169956445694,-0.02168571576476097
15691173,0.3351095914840698,-0.5146325826644897,10.37702751159668,0.019853120669722557,-0.055894169956445694,-0.02168571576476097
15692371,-0.1142963096499443,-0.20704986155033112,10.180150985717773,0.019853120669722557,-0.055894169956445694,-0.02168571576476097
15693562,-0.47753119468688965,-0.08437581360340118,10.165190696716309,0.019853120669722557,-0.055894169956445694,-0.02168571576476097
15694759,-0.1615706980228424,-0.3446841537952423,10.099365234375,0.019853120669722557,-0.055894169956445694,-0.02168571576476097
15695899,-0.06223464012145996,-0.39255696535110474,10.047304153442383,0.019853120669722557,-0.055894169956445694,-0.02168571576476097
15697169,0.3584475815296173,-0.7539966106414795,10.150829315185547,0.019853120669722557,-0.055894169956445694,-0.02168571576476097
15698368,0.11070585250854492,-0.2046562284231186,10.152624130249023,0.019853120669722557,-0.055894169956445694,-0.02168571576476097
15699562,-0.1753341257572174,-0.07420284301042557,10.061665534973145,0.019853120669722557,-0.055894169956445694,-0.02168571576476097
15700734,-0.16875162720680237,-0.3566523492336273,10.140057563781738,0.019853120669722557,-0.055894169956445694,-0.02168571576476097
15701922,0.01615707017481327,-0.42068222165107727,10.153820991516113,0.019853120669722557,-0.055894169956445694,-0.02168571576476097
15702965,-0.27287495136260986,-0.14421680569648743,9.955148696899414,0.019853120669722557,-0.055894169956445694,-0.02168571576476097
15703944,-0.1280597448348999,-0.20764827728271484,10.152026176452637,0.019853120669722557,-0.055894169956445694,-0.02168571576476097
15705206,0.4823184609413147,-0.6307241320610046,10.21426010131836,0.019853120669722557,-0.055894169956445694,-0.02168571576476097
15706390,0.3482746183872223,-0.4996723532676697,10.125097274780273,0.019853120669722557,-0.055894169956445694,-0.02168571576476097
15707574,0.4015331268310547,-0.5511355996131897,10.122105598449707,0.019853120669722557,-0.055894169956445694,-0.02168571576476097
15708618,0.1513977348804474,-0.26090675592422485,10.182544708251953,0.019853120669722557,-0.055894169956445694,-0.02168571576476097
15709725,0.1023281142115593,-0.4865073263645172,10.077224731445312,0.019853120669722557,-0.055894169956445694,-0.02168571576476097
15710871,-0.06821873784065247,-0.1968768984079361,10.207677841186523,0.019853120669722557,-0.055894169956445694,-0.02168571576476097
15712009,-0.2321830838918686,-0.12028041481971741,10.087397575378418,0.019853120669722557,-0.055894169956445694,-0.02168571576476097
15713196,-0.22320693731307983,-0.23876559734344482,9.926424980163574,0.019853120669722557,-0.055894169956445694,-0.02168571576476097
15714338,0.04906962066888809,-0.4308552145957947,10.121506690979004,0.019853120669722557,-0.055894169956445694,-0.02168571576476097
15715535,-0.06582509726285934,-0.23337990045547485,10.196906089782715,0.019853120669722557,-0.055894169956445694,-0.02168571576476097
15716728,-0.3249366283416748,-0.20226258039474487,10.058673858642578,0.019853120669722557,-0.055894169956445694,-0.02168571576476097
15717897,-0.4942866563796997,-0.01675548031926155,10.18194580078125,0.019853120669722557,-0.055894169956445694,-0.02168571576476097
15719056,-0.5505372285842896,0.02992049977183342,10.042516708374023,0.019853120669722557,-0.055894169956445694,-0.02168571576476097
15720253,-0.3422905206680298,-0.25133219361305237,9.979084968566895,0.019853120669722557,-0.055894169956445694,-0.02168571576476097
15721435,0.04488075152039528,-0.4081156253814697,10.096972465515137,0.019853120669722557,-0.055894169956445694,-0.02168571576476097
15722632,0.2890320420265198,-0.4781295955181122,10.059271812438965,0.019853120669722557,-0.055894169956445694,-0.02168571576476097
15723893,-0.012566610239446163,-0.06941556185483932,10.181347846984863,0.019853120669722557,-0.055894169956445694,-0.02168571576476097
15725071,0.05804577097296715,-0.18012140691280365,10.218449592590332,0.019853120669722557,-0.055894169956445694,-0.02168571576476097
15726256,-0.1753341257572174,-0.1693500280380249,10.125097274780273,0.019853120669722557,-0.055894169956445694,-0.02168571576476097
15727451,0.18550710380077362,-0.44402021169662476,10.097570419311523,0.019853120669722557,-0.055894169956445694,-0.02168571576476097
15728639,0.1513977348804474,-0.3500698506832123,10.141852378845215,0.019853120669722557,-0.055894169956445694,-0.02168571576476097
15729824,-0.08377739787101746,-0.2573162913322449,10.188529014587402,0.019853120669722557,-0.055894169956445694,-0.02168571576476097
15731006,0.06163623183965683,-0.4392329454421997,10.069445610046387,0.019853120669722557,-0.055894169956445694,-0.02168571576476097
15732192,-0.04847121238708496,-0.4093124568462372,10.055682182312012,0.019853120669722557,-0.055894169956445694,-0.02168571576476097
15733493,0.07539965957403183,-0.4936882555484772,10.102357864379883,0.019853120669722557,-0.055894169956445694,-0.02168571576476097
15734658,-0.07719489187002182,-0.2716781497001648,10.069445610046387,0.019853120669722557,-0.055894169956445694,-0.02168571576476097
15735707,-0.4015331268310547,0.13045337796211243,10.036532402038574,0.019853120669722557,-0.055894169956445694,-0.02168571576476097
15736751,-0.3901633322238922,0.06762032955884933,10.0778226852417,0.019853120669722557,-0.055894169956445694,-0.02168571576476097
15737986,0.007779330015182495,-0.15857864916324615,10.013792991638184,0.019853120669722557,-0.055894169956445694,-0.02168571576476097
15739179,-0.23158466815948486,-0.07899012416601181,10.196308135986328,0.019853120669722557,-0.055894169956445694,-0.02168571576476097
15740236,-0.13344542682170868,-0.16396434605121613,10.219646453857422,0.019853120669722557,-0.055894169956445694,-0.02168571576476097
15741215,-0.16635797917842865,-0.1693500280380249,10.180150985717773,0.019853120669722557,-0.055894169956445694,-0.02168571576476097
15742189,-0.3428889214992523,-0.007180919870734215,10.123302459716797,0.019853120669722557,-0.055894169956445694,-0.02168571576476097
15743165,-0.5248056054115295,-0.1142963096499443,10.125696182250977,0.019853120669722557,-0.055894169956445694,-0.02168571576476097
15744199,-0.6570541858673096,0.24474969506263733,10.222040176391602,0.019853120669722557,-0.055894169956445694,-0.02168571576476097
15745179,-0.5313881039619446,-0.04547915980219841,10.046107292175293,0.019853120669722557,-0.055894169956445694,-0.02168571576476097
15746154,-0.6941556334495544,0.2501353919506073,10.040721893310547,0.019853120669722557,-0.055894169956445694,-0.02168571576476097
15747113,-0.3387000560760498,0.16575957834720612,10.335737228393555,0.019853120669722557,-0.055894169956445694,-0.02168571576476097
15748087,-0.0885646790266037,0.15977546572685242,10.065256118774414,0.019853120669722557,-0.055894169956445694,-0.02168571576476097
15749054,0.04308551922440529,0.03231414034962654,10.1544189453125,0.019853120669722557,-0.055894169956445694,-0.02168571576476097
15750020,-0.5056564807891846,0.3979426622390747,10.285470962524414,0.019853120669722557,-0.055894169956445694,-0.02168571576476097
15751082,-0.47513753175735474,0.2106403261423111,10.235803604125977,0.019853120669722557,-0.055894169956445694,-0.02168571576476097
15752282,-0.2525290250778198,0.16276751458644867,10.043115615844727,0.019853120669722557,-0.055894169956445694,-0.02168571576476097
15753454,-0.3937537968158722,0.1693500280380249,9.981478691101074,0.019853120669722557,-0.055894169956445694,-0.02168571576476097
15754665,-0.5690879225730896,0.4823184609413147,10.113727569580078,0.019853120669722557,-0.055894169956445694,-0.02168571576476097
15755868,-0.24474969506263733,-0.10950902849435806,10.21186637878418,0.019853120669722557,-0.055894169956445694,-0.02168571576476097
15757085,-0.07061237841844559,-0.0017952299676835537,10.013792991638184,0.019853120669722557,-0.055894169956445694,-0.02168571576476097
15758285,-0.035306189209222794,-0.2184196561574936,10.151427268981934,0.02535090781748295,-0.048258353024721146,0.01191187184303999
15759496,-0.42008382081985474,0.09574560075998306,10.07303524017334,0.02535090781748295,-0.048258353024721146,0.01191187184303999
15760686,-0.4918930232524872,0.27826064825057983,10.162796974182129,0.02535090781748295,-0.048258353024721146,0.01191187184303999
15761896,-0.2740717828273773,0.013165020383894444,10.089192390441895,0.02535090781748295,-0.048258353024721146,0.01191187184303999
15763101,-0.0029920500237494707,-0.1693500280380249,10.189126968383789,0.02535090781748295,-0.048258353024721146,0.01191187184303999
15764158,0.14661045372486115,0.021542759612202644,10.15681266784668,0.02535090781748295,-0.048258353024721146,0.01191187184303999
15765134,-0.3698173761367798,0.13464225828647614,10.456616401672363,0.02535090781748295,-0.048258353024721146,0.01191187184303999
15766108,-0.3488730192184448,0.1651611626148224,10.341123580932617,0.02535090781748295,-0.048258353024721146,0.01191187184303999
15767082,-0.5044596195220947,0.038896650075912476,10.049697875976562,0.02535090781748295,-0.048258353024721146,0.01191187184303999
15768050,-0.4763343632221222,-0.07779330015182495,9.968912124633789,0.02535090781748295,-0.048258353024721146,0.01191187184303999
15769023,0.08377739787101746,-0.5337817072868347,10.059271812438965,0.02535090781748295,-0.048258353024721146,0.01191187184303999
15770244,-0.11968199908733368,0.022739579901099205,10.176560401916504,0.02535090781748295,-0.048258353024721146,0.01191187184303999
15771421,-0.3548571467399597,-0.09395036846399307,10.135270118713379,0.02535090781748295,-0.048258353024721146,0.01191187184303999
15772649,-0.052061669528484344,-0.025133220478892326,10.201095581054688,0.02535090781748295,-0.048258353024721146,0.01191187184303999
15773866,-0.7653663754463196,0.43624088168144226,9.971904754638672,0.02535090781748295,-0.048258353024721146,0.01191187184303999
15774922,-0.4512011408805847,0.050864849239587784,10.018580436706543,0.02535090781748295,-0.048258353024721146,0.01191187184303999
15775890,0.45179954171180725,-0.5978115797042847,10.440459251403809,0.02535090781748295,-0.048258353024721146,0.01191187184303999
15777026,0.06762032955884933,-0.5864418148994446,10.10415267944336,0.02535090781748295,-0.048258353024721146,0.01191187184303999
15778027,0.5182230472564697,-0.8718833923339844,10.183741569519043,0.02535090781748295,-0.048258353024721146,0.01191187184303999
15778991,0.5313881039619446,-0.6277320981025696,10.234606742858887,0.02535090781748295,-0.048258353024721146,0.01191187184303999
15779956,0.5918275117874146,-0.6732112765312195,10.178954124450684,0.02535090781748295,-0.048258353024721146,0.01191187184303999
15780921,0.06762032955884933,-0.23517513275146484,10.07183837890625,0.02535090781748295,-0.048258353024721146,0.01191187184303999
15781887,-0.10891062021255493,-0.19747529923915863,10.0443115234375,0.02535090781748295,-0.048258353024721146,0.01191187184303999
15782997,0.028125271201133728,-0.35366031527519226,10.001824378967285,0.02535090781748295,-0.048258353024721146,0.01191187184303999
15784350,-0.1735389083623886,-0.29082727432250977,9.956944465637207,0.02535090781748295,-0.048258353024721146,0.01191187184303999
15785562,-0.28843361139297485,-0.052061669528484344,10.23699951171875,0.02535090781748295,-0.048258353024721146,0.01191187184303999
15786769,0.13045337796211243,-0.3841792345046997,10.033540725708008,0.02535090781748295,-0.048258353024721146,0.01191187184303999
15787965,-0.01795230060815811,-0.4470122754573822,10.168781280517578,0.02535090781748295,-0.048258353024721146,0.01191187184303999
15789154,0.2381671816110611,-0.8694897294044495,10.186135292053223,0.02535090781748295,-0.048258353024721146,0.01191187184303999
15790371,0.19807371497154236,-0.8569231033325195,10.2980375289917,0.02535090781748295,-0.048258353024721146,0.01191187184303999
15791581,0.1537913680076599,-0.3943521976470947,10.176560401916504,0.02535090781748295,-0.048258353024721146,0.01191187184303999
15792783,0.037101421505212784,-0.21542760729789734,10.067649841308594,0.02535090781748295,-0.048258353024721146,0.01191187184303999
15793984,-0.21363237500190735,-0.43803611397743225,9.995841026306152,0.02535090781748295,-0.048258353024721146,0.01191187184303999
15795190,-0.2459465116262436,0.0610378198325634,10.108940124511719,0.02535090781748295,-0.048258353024721146,0.01191187184303999
15796419,-0.2543242573738098,-0.25312742590904236,10.10534954071045,0.02535090781748295,-0.048258353024721146,0.01191187184303999
15797655,-0.2633003890514374,-0.07180920243263245,10.173568725585938,0.02535090781748295,-0.048258353024721146,0.01191187184303999
15798877,-0.24474969506263733,-0.33570802211761475,10.088594436645508,0.02535090781748295,-0.048258353024721146,0.01191187184303999
15800067,-0.22978943586349487,-0.3225429952144623,10.056879043579102,0.02535090781748295,-0.048258353024721146,0.01191187184303999
15801286,-0.03231414034962654,-0.4763343632221222,10.186135292053223,0.02535090781748295,-0.048258353024721146,0.01191187184303999
15802484,-0.17653095722198486,-0.31955093145370483,10.105948448181152,0.02535090781748295,-0.048258353024721146,0.01191187184303999
15803670,-0.12566609680652618,-0.32613345980644226,10.083209037780762,0.02535090781748295,-0.048258353024721146,0.01191187184303999
15804728,-0.48949939012527466,-0.2680876851081848,10.134073257446289,0.02535090781748295,-0.048258353024721146,0.01191187184303999
15805693,-0.46915343403816223,-0.06163623183965683,10.146041870117188,0.02535090781748295,-0.048258353024721146,0.01191187184303999
15806659,-0.5804576873779297,0.24355287849903107,9.998234748840332,0.02535090781748295,-0.048258353024721146,0.01191187184303999
15807857,-0.4978771209716797,0.05684895068407059,10.18314266204834,0.02535090781748295,-0.048258353024721146,0.01191187184303999
15809057,-0.2758670151233673,-0.08796627074480057,10.02157211303711,0.02535090781748295,-0.048258353024721146,0.01191187184303999
15810274,-0.4248711168766022,-0.12446928024291992,10.077224731445312,0.02535090781748295,-0.048258353024721146,0.01191187184303999
15811344,-0.3895649015903473,-0.01496024988591671,10.095775604248047,0.02535090781748295,-0.048258353024721146,0.01191187184303999
15812507,-0.3781951367855072,0.011968200094997883,10.111932754516602,0.02535090781748295,-0.048258353024721146,0.01191187184303999
15813632,-0.03111732006072998,-0.2674892842769623,9.99045467376709,0.02535090781748295,-0.048258353024721146,0.01191187184303999
15814662,-0.03470778092741966,-0.23756876587867737,10.171772956848145,0.02535090781748295,-0.048258353024721146,0.01191187184303999
15815891,-0.11130426079034805,-0.21542760729789734,10.196906089782715,0.02535090781748295,-0.048258353024721146,0.01191187184303999
15817130,-0.3722110390663147,-0.17294049263000488,10.23939323425293,0.02535090781748295,-0.048258353024721146,0.01191187184303999
15818324,-0.3668253421783447,0.10292652249336243,9.947967529296875,0.02535090781748295,-0.048258353024721146,0.01191187184303999
15819549,-0.20226258039474487,-0.14421680569648743,10.098169326782227,0.02535090781748295,-0.048258353024721146,0.01191187184303999
15820747,-0.4350440800189972,0.22021488845348358,10.149033546447754,0.02535090781748295,-0.048258353024721146,0.01191187184303999
15821944,-0.5565212965011597,0.07300601899623871,10.246574401855469,0.02535090781748295,-0.048258353024721146,0.01191187184303999
15823209,-0.22799421846866608,-0.0963440090417862,10.107145309448242,0.02535090781748295,-0.048258353024721146,0.01191187184303999
15824408,-0.2543242573738098,-0.43205201625823975,9.913260459899902,0.02535090781748295,-0.048258353024721146,0.01191187184303999
15825598,0.018550710752606392,-0.39495059847831726,10.171772956848145,0.02535090781748295,-0.048258353024721146,0.01191187184303999
15826831,-0.052660081535577774,-0.4236742854118347,10.095176696777344,0.02535090781748295,-0.048258353024721146,0.01191187184303999
15828043,-0.28603997826576233,-0.07719489187002182,10.306415557861328,0.02535090781748295,-0.048258353024721146,0.01191187184303999
15829282,-0.26868608593940735,-0.07599806785583496,10.158608436584473,0.02535090781748295,-0.048258353024721146,0.01191187184303999
15830450,-0.0867694541811943,-0.27287495136260986,10.290857315063477,0.02535090781748295,-0.048258353024721146,0.01191187184303999
15831629,-0.09035991132259369,-0.3638332784175873,10.122703552246094,0.02535090781748295,-0.048258353024721146,0.01191187184303999
15832845,-0.43444567918777466,0.09335196018218994,10.167584419250488,0.02535090781748295,-0.048258353024721146,0.01191187184303999
15834053,-0.10412333905696869,-0.38298240303993225,10.031744956970215,0.02535090781748295,-0.048258353024721146,0.01191187184303999
15835231,0.36921897530555725,-0.5690879225730896,10.103554725646973,0.03451388701796532,-0.039095375686883926,0.009468411095440388
15836409,-0.053856901824474335,-0.0945487841963768,10.040122985839844,0.03451388701796532,-0.039095375686883926,0.009468411095440388
15837631,-0.04966802895069122,-0.16875162720680237,10.07423210144043,0.03451388701796532,-0.039095375686883926,0.009468411095440388
15838844,0.16695639491081238,-0.4410281777381897,10.151427268981934,0.03451388701796532,-0.039095375686883926,0.009468411095440388
15840063,-0.5385690331459045,0.053258489817380905,10.10295581817627,0.03451388701796532,-0.039095375686883926,0.009468411095440388
15841285,-0.5044596195220947,0.18251505494117737,10.076027870178223,0.03451388701796532,-0.039095375686883926,0.009468411095440388
15842511,-0.5349785685539246,0.1873023360967636,10.228023529052734,0.03451388701796532,-0.039095375686883926,0.009468411095440388
15843569,-0.2914256751537323,-0.12147723138332367,10.332745552062988,0.03451388701796532,-0.039095375686883926,0.009468411095440388
15844545,0.40691879391670227,-0.6157639026641846,10.12808895111084,0.03451388701796532,-0.039095375686883926,0.009468411095440388
15845555,0.5672926902770996,-0.7492093443870544,10.299234390258789,0.03451388701796532,-0.039095375686883926,0.009468411095440388
15846540,0.3698173761367798,-0.7372411489486694,10.176560401916504,0.03451388701796532,-0.039095375686883926,0.009468411095440388
15847509,0.3075827360153198,-0.49129462242126465,10.176560401916504,0.03451388701796532,-0.039095375686883926,0.009468411095440388
15848552,-0.07121079415082932,-0.3638332784175873,10.031744956970215,0.03451388701796532,-0.039095375686883926,0.009468411095440388
15849558,-0.20405781269073486,-0.13105179369449615,10.052091598510742,0.03451388701796532,-0.039095375686883926,0.009468411095440388
15850529,-0.5002707839012146,-0.08736786246299744,10.0227689743042,0.03451388701796532,-0.039095375686883926,0.009468411095440388
15851499,-0.2680876851081848,-0.17653095722198486,9.974297523498535,0.03451388701796532,-0.039095375686883926,0.009468411095440388
15852803,-0.16695639491081238,-0.2363719493150711,10.124499320983887,0.03451388701796532,-0.039095375686883926,0.009468411095440388
15854009,-0.21004191040992737,-0.4506027400493622,10.089791297912598,0.03451388701796532,-0.039095375686883926,0.009468411095440388
15855208,-0.40632039308547974,-0.19568006694316864,10.049697875976562,0.03451388701796532,-0.039095375686883926,0.009468411095440388
15856387,0.0945487841963768,-0.5343801379203796,10.173568725585938,0.03451388701796532,-0.039095375686883926,0.009468411095440388
15857606,0.38717126846313477,-0.7360442876815796,10.178356170654297,0.03451388701796532,-0.039095375686883926,0.009468411095440388
15858797,0.1908927857875824,-0.6600462198257446,10.175962448120117,0.03451388701796532,-0.039095375686883926,0.009468411095440388
15860003,0.2124355584383011,-0.7031317353248596,10.104751586914062,0.03451388701796532,-0.039095375686883926,0.009468411095440388
15861198,0.025731630623340607,-0.35545554757118225,10.218449592590332,0.03451388701796532,-0.039095375686883926,0.009468411095440388
15862392,-0.28663837909698486,-0.1615706980228424,10.125696182250977,0.03451388701796532,-0.039095375686883926,0.009468411095440388
15863611,-0.5403642654418945,-0.13464225828647614,9.979084968566895,0.03451388701796532,-0.039095375686883926,0.009468411095440388
15864810,-0.6235432028770447,-0.10352493077516556,10.077224731445312,0.03451388701796532,-0.039095375686883926,0.009468411095440388
15865868,-0.3704158067703247,-0.20944350957870483,10.052091598510742,0.03451388701796532,-0.039095375686883926,0.009468411095440388
15866833,-0.09095831960439682,-0.6163623332977295,10.044910430908203,0.03451388701796532,-0.039095375686883926,0.009468411095440388
15867795,0.29022884368896484,-0.5654974579811096,10.249567031860352,0.03451388701796532,-0.039095375686883926,0.009468411095440388
15868757,0.23697036504745483,-0.40452516078948975,10.205883026123047,0.03451388701796532,-0.039095375686883926,0.009468411095440388
15869908,0.24534809589385986,-0.37340784072875977,10.21545696258545,0.03451388701796532,-0.039095375686883926,0.009468411095440388
15870967,0.2878352105617523,-0.6367082595825195,10.219646453857422,0.03451388701796532,-0.039095375686883926,0.009468411095440388
15872114,0.09514719247817993,-0.28663837909698486,10.077224731445312,0.03451388701796532,-0.039095375686883926,0.009468411095440388
15873340,-0.28065428137779236,-0.1340438425540924,10.2429838180542,0.03451388701796532,-0.039095375686883926,0.009468411095440388
15874554,-0.8216169476509094,0.1651611626148224,9.93540096282959,0.03451388701796532,-0.039095375686883926,0.009468411095440388
15875754,-0.31356683373451233,-0.06522668898105621,10.023965835571289,0.03451388701796532,-0.039095375686883926,0.009468411095440388
15876945,-0.3010002374649048,-0.15498818457126617,10.096972465515137,0.03451388701796532,-0.039095375686883926,0.009468411095440388
15877999,-0.24953697621822357,-0.10771380364894867,10.097570419311523,0.03451388701796532,-0.039095375686883926,0.009468411095440388
15878972,-0.2956145405769348,-0.17413730919361115,10.228622436523438,0.03451388701796532,-0.039095375686883926,0.009468411095440388
15880116,-0.07719489187002182,-0.22021488845348358,10.094578742980957,0.03451388701796532,-0.039095375686883926,0.009468411095440388
15881111,0.35904601216316223,-0.5050580501556396,10.172969818115234,0.03451388701796532,-0.039095375686883926,0.009468411095440388
15882088,-0.04667598009109497,-0.20944350957870483,10.077224731445312,0.03451388701796532,-0.039095375686883926,0.009468411095440388
15883056,-0.33211755752563477,-0.0867694541811943,10.180150985717773,0.03451388701796532,-0.039095375686883926,0.009468411095440388
15884022,-0.12686292827129364,-0.005984100047498941,10.006611824035645,0.03451388701796532,-0.039095375686883926,0.009468411095440388
15884975,-0.20585304498672485,0.022141169756650925,9.99045467376709,0.03451388701796532,-0.039095375686883926,0.009468411095440388
15886252,-0.01555866003036499,-0.3291254937648773,10.184938430786133,0.03451388701796532,-0.039095375686883926,0.009468411095440388
15887457,-0.5714815855026245,0.006582510191947222,10.149632453918457,0.03451388701796532,-0.039095375686883926,0.009468411095440388
15888645,-1.1716867685317993,0.5511355996131897,10.098169326782227,0.03451388701796532,-0.039095375686883926,0.009468411095440388
15889828,-0.4906961917877197,0.09275355190038681,10.057476997375488,0.03451388701796532,-0.039095375686883926,0.009468411095440388
15891027,0.22500216960906982,-0.35186508297920227,10.109539031982422,0.03451388701796532,-0.039095375686883926,0.009468411095440388
15892223,0.45539000630378723,-0.4129028916358948,10.238795280456543,0.03451388701796532,-0.039095375686883926,0.009468411095440388
15893467,0.08976150304079056,-0.32194459438323975,10.316588401794434,0.03451388701796532,-0.039095375686883926,0.009468411095440388
15894651,-0.20046734809875488,-0.22500216960906982,10.175962448120117,0.03451388701796532,-0.039095375686883926,0.009468411095440388
15895847,-0.27048131823539734,-0.09933605790138245,10.082012176513672,0.03451388701796532,-0.039095375686883926,0.009468411095440388
15897063,-0.6785969734191895,-0.04847121238708496,9.931212425231934,0.03451388701796532,-0.039095375686883926,0.009468411095440388
15898270,-0.6594478487968445,0.05026644095778465,10.031147003173828,0.03451388701796532,-0.039095375686883926,0.009468411095440388
15899481,-0.3997378945350647,-0.13464225828647614,10.057476997375488,0.03451388701796532,-0.039095375686883926,0.009468411095440388
15900678,-0.3578491806983948,0.14720885455608368,10.007808685302734,0.03451388701796532,-0.039095375686883926,0.009468411095440388
15901872,-0.15917706489562988,-0.19149120151996613,10.320178985595703,0.03451388701796532,-0.039095375686883926,0.009468411095440388
15903157,0.3775967061519623,-0.5738751888275146,10.077224731445312,0.03451388701796532,-0.039095375686883926,0.009468411095440388
15904363,0.2662924528121948,-0.4547916054725647,10.206480979919434,0.03451388701796532,-0.039095375686883926,0.009468411095440388
15905550,0.2501353919506073,-0.5852450132369995,10.165190696716309,0.03451388701796532,-0.039095375686883926,0.009468411095440388
15906760,0.20405781269073486,-0.4392329454421997,10.208276748657227,0.03451388701796532,-0.039095375686883926,0.009468411095440388
15907801,-0.1220756396651268,-0.2740717828273773,10.030548095703125,0.03451388701796532,-0.039095375686883926,0.009468411095440388
15908763,-0.5206167101860046,0.13883112370967865,10.110136985778809,0.03451388701796532,-0.039095375686883926,0.009468411095440388
15910024,-0.8934261202812195,0.1573818325996399,9.941984176635742,0.03451388701796532,-0.039095375686883926,0.009468411095440388
15911349,-0.35186508297920227,-0.008976150304079056,10.140057563781738,0.03451388701796532,-0.039095375686883926,0.009468411095440388
15912531,0.07001397013664246,-0.3578491806983948,9.981478691101074,0.03298672288656235,-0.042760565876960754,0.0009162978385575116
15913576,-0.25492265820503235,-0.12087882310152054,10.204686164855957,0.03298672288656235,-0.042760565876960754,0.0009162978385575116
15914540,0.08736786246299744,-0.2226085215806961,10.13167953491211,0.03298672288656235,-0.042760565876960754,0.0009162978385575116
15915510,0.26868608593940735,-0.2662924528121948,10.126294136047363,0.03298672288656235,-0.042760565876960754,0.0009162978385575116
15916473,-0.07719489187002182,-0.3746046721935272,10.07303524017334,0.03298672288656235,-0.042760565876960754,0.0009162978385575116
15917442,0.037101421505212784,-0.22380533814430237,10.180150985717773,0.03298672288656235,-0.042760565876960754,0.0009162978385575116
15918708,-0.06043941155076027,-0.15798024833202362,10.174765586853027,0.03298672288656235,-0.042760565876960754,0.0009162978385575116
15919917,-0.27646541595458984,-0.3781951367855072,10.121506690979004,0.03298672288656235,-0.042760565876960754,0.0009162978385575116
15921110,-0.23517513275146484,-0.1968768984079361,10.019777297973633,0.03298672288656235,-0.042760565876960754,0.0009162978385575116
15922279,-0.5194199085235596,-0.31177160143852234,10.039525032043457,0.03298672288656235,-0.042760565876960754,0.0009162978385575116
15923473,-0.16396434605121613,0.019149120897054672,10.023367881774902,0.03298672288656235,-0.042760565876960754,0.0009162978385575116
15924671,0.11788677424192429,-0.2974097728729248,10.085601806640625,0.03298672288656235,-0.042760565876960754,0.0009162978385575116
15925877,0.3387000560760498,-0.4589804708957672,10.275298118591309,0.03298672288656235,-0.042760565876960754,0.0009162978385575116
15927053,0.3129684329032898,-0.3638332784175873,10.234007835388184,0.03298672288656235,-0.042760565876960754,0.0009162978385575116
15928248,0.08437581360340118,-0.31237003207206726,10.26572322845459,0.03298672288656235,-0.042760565876960754,0.0009162978385575116
15929456,-0.1436184048652649,-0.07839170843362808,10.180150985717773,0.03298672288656235,-0.042760565876960754,0.0009162978385575116
15930668,-0.4021315276622772,0.025133220478892326,10.137065887451172,0.03298672288656235,-0.042760565876960754,0.0009162978385575116
15931841,-0.7881059646606445,0.33750325441360474,10.061665534973145,0.03298672288656235,-0.042760565876960754,0.0009162978385575116
15933054,-0.6343145966529846,-0.1693500280380249,10.048501014709473,0.03298672288656235,-0.042760565876960754,0.0009162978385575116
15934255,-0.24355287849903107,-0.19568006694316864,9.85282039642334,0.03298672288656235,-0.042760565876960754,0.0009162978385575116
15935495,-0.09754083305597305,-0.28843361139297485,10.305817604064941,0.03298672288656235,-0.042760565876960754,0.0009162978385575116
15936668,-0.15917706489562988,-0.12686292827129364,10.119112968444824,0.03298672288656235,-0.042760565876960754,0.0009162978385575116
15937858,-0.2537258565425873,0.007779330015182495,10.008407592773438,0.03298672288656235,-0.042760565876960754,0.0009162978385575116
15939048,0.22021488845348358,-0.09813924133777618,10.390790939331055,0.03298672288656235,-0.042760565876960754,0.0009162978385575116
15940233,0.09933605790138245,-0.07899012416601181,10.143648147583008,0.03298672288656235,-0.042760565876960754,0.0009162978385575116
15941436,0.10891062021255493,-0.23457671701908112,10.223236083984375,0.03298672288656235,-0.042760565876960754,0.0009162978385575116
15942657,0.07719489187002182,-0.09993447363376617,10.220244407653809,0.03298672288656235,-0.042760565876960754,0.0009162978385575116
15943870,-0.7210840582847595,0.07300601899623871,10.121506690979004,0.03298672288656235,-0.042760565876960754,0.0009162978385575116
15944922,-0.6217479705810547,0.011369789950549603,9.931811332702637,0.03298672288656235,-0.042760565876960754,0.0009162978385575116
15945895,-0.22799421846866608,-0.18849915266036987,10.163993835449219,0.03298672288656235,-0.042760565876960754,0.0009162978385575116
15946864,-0.0472743920981884,-0.24953697621822357,10.165190696716309,0.03298672288656235,-0.042760565876960754,0.0009162978385575116
15947881,-0.3877696990966797,0.31356683373451233,9.959338188171387,0.03298672288656235,-0.042760565876960754,0.0009162978385575116
15948871,0.11309949308633804,-0.004188870079815388,10.152026176452637,0.03298672288656235,-0.042760565876960754,0.0009162978385575116
15949834,0.3093779683113098,-0.1478072702884674,10.295045852661133,0.03298672288656235,-0.042760565876960754,0.0009162978385575116
15950797,0.5068532824516296,-0.20585304498672485,10.056280136108398,0.03298672288656235,-0.042760565876960754,0.0009162978385575116
15951760,0.23278149962425232,-0.5182230472564697,10.260337829589844,0.03298672288656235,-0.042760565876960754,0.0009162978385575116
15952722,-0.0017952299676835537,-0.3111732006072998,10.293848991394043,0.03298672288656235,-0.042760565876960754,0.0009162978385575116
15953689,-0.34109368920326233,-0.1831134557723999,10.103554725646973,0.03298672288656235,-0.042760565876960754,0.0009162978385575116
15954895,-0.09993447363376617,-0.3440857529640198,10.251361846923828,0.03298672288656235,-0.042760565876960754,0.0009162978385575116
15956105,-0.04547915980219841,-0.3883680999279022,9.874961853027344,0.03298672288656235,-0.042760565876960754,0.0009162978385575116
15957329,0.40632039308547974,-0.5170262455940247,10.18194580078125,0.03298672288656235,-0.042760565876960754,0.0009162978385575116
15958534,-0.007180919870734215,-0.22560057044029236,10.12808895111084,0.03298672288656235,-0.042760565876960754,0.0009162978385575116
15959716,-0.1376343071460724,-0.15798024833202362,10.18314266204834,0.03298672288656235,-0.042760565876960754,0.0009162978385575116
15960913,-0.08018694072961807,-0.07121079415082932,9.986865043640137,0.03298672288656235,-0.042760565876960754,0.0009162978385575116
15962135,-0.013165020383894444,-0.15977546572685242,10.174166679382324,0.03298672288656235,-0.042760565876960754,0.0009162978385575116
15963349,-0.12087882310152054,-0.29860660433769226,10.120908737182617,0.03298672288656235,-0.042760565876960754,0.0009162978385575116
15964552,-0.1986721158027649,-0.45359477400779724,10.089192390441895,0.03298672288656235,-0.042760565876960754,0.0009162978385575116
15965744,-0.2896304428577423,-0.2363719493150711,10.134672164916992,0.03298672288656235,-0.042760565876960754,0.0009162978385575116
15966926,-0.15798024833202362,-0.2896304428577423,10.146041870117188,0.03298672288656235,-0.042760565876960754,0.0009162978385575116
15968137,0.055652130395174026,-0.49308985471725464,10.07303524017334,0.03298672288656235,-0.042760565876960754,0.0009162978385575116
15969369,-0.04966802895069122,-0.24056082963943481,9.99045467376709,0.03298672288656235,-0.042760565876960754,0.0009162978385575116
15970593,-0.32014936208724976,0.10651697963476181,10.133475303649902,0.03298672288656235,-0.042760565876960754,0.0009162978385575116
15971784,0.0,-0.33211755752563477,10.15800952911377,0.03298672288656235,-0.042760565876960754,0.0009162978385575116
15972982,-0.1513977348804474,-0.15798024833202362,10.037131309509277,0.03298672288656235,-0.042760565876960754,0.0009162978385575116
15974184,-0.29262250661849976,-0.2674892842769623,10.107145309448242,0.03298672288656235,-0.042760565876960754,0.0009162978385575116
15975409,-0.4889009892940521,0.025731630623340607,10.197504997253418,0.03298672288656235,-0.042760565876960754,0.0009162978385575116
15976602,-0.3638332784175873,-0.2758670151233673,10.085003852844238,0.03298672288656235,-0.042760565876960754,0.0009162978385575116
15977765,-0.22141170501708984,-0.2064514458179474,10.150829315185547,0.03298672288656235,-0.042760565876960754,0.0009162978385575116
15978871,-0.35725077986717224,-0.2321830838918686,10.10534954071045,0.03298672288656235,-0.042760565876960754,0.0009162978385575116
15979857,-0.4805232286453247,-0.06821873784065247,10.037131309509277,0.03298672288656235,-0.042760565876960754,0.0009162978385575116
15980820,-0.07839170843362808,-0.23697036504745483,10.083209037780762,0.03298672288656235,-0.042760565876960754,0.0009162978385575116
15981783,-0.1771293580532074,-0.25312742590904236,10.26572322845459,0.03298672288656235,-0.042760565876960754,0.0009162978385575116
15982746,-0.3895649015903473,-0.04308551922440529,10.164592742919922,0.03298672288656235,-0.042760565876960754,0.0009162978385575116
15983709,-0.6277320981025696,0.1968768984079361,10.163993835449219,0.03298672288656235,-0.042760565876960754,0.0009162978385575116
15984677,-0.5415610671043396,0.09215514361858368,10.163395881652832,0.03298672288656235,-0.042760565876960754,0.0009162978385575116
15985644,-0.22141170501708984,-0.16994844377040863,10.07303524017334,0.03298672288656235,-0.042760565876960754,0.0009162978385575116
15987006,-0.27646541595458984,-0.36562851071357727,10.002423286437988,0.03298672288656235,-0.042760565876960754,0.0009162978385575116
15988286,-0.19927053153514862,-0.13224861025810242,10.226228713989258,0.03298672288656235,-0.042760565876960754,0.0009162978385575116
15989472,-0.09993447363376617,-0.28304794430732727,10.188529014587402,0.033597588539123535,-0.03604104742407799,-0.03634648025035858
15990671,0.19388484954833984,-0.5750719904899597,10.028155326843262,0.033597588539123535,-0.03604104742407799,-0.03634648025035858
15991848,-0.27048131823539734,-0.03231414034962654,10.026958465576172,0.033597588539123535,-0.03604104742407799,-0.03634648025035858
15993055,-0.22919103503227234,-0.2680876851081848,10.111932754516602,0.033597588539123535,-0.03604104742407799,-0.03634648025035858
15994270,-0.5277976393699646,0.0825805813074112,10.109539031982422,0.033597588539123535,-0.03604104742407799,-0.03634648025035858
15995463,-0.6265352964401245,-0.09335196018218994,10.157411575317383,0.033597588539123535,-0.03604104742407799,-0.03634648025035858
15996656,-0.8862451910972595,0.1478072702884674,10.149033546447754,0.033597588539123535,-0.03604104742407799,-0.03634648025035858
15997854,-0.6115750074386597,0.17952300608158112,10.125696182250977,0.033597588539123535,-0.03604104742407799,-0.03634648025035858
15999052,-0.20166417956352234,-0.2381671816110611,9.921637535095215,0.033597588539123535,-0.03604104742407799,-0.03634648025035858
16000247,0.07899012416601181,-0.5750719904899597,10.141254425048828,0.033597588539123535,-0.03604104742407799,-0.03634648025035858
16001436,-0.10113129019737244,-0.3913601338863373,10.171175003051758,0.033597588539123535,-0.03604104742407799,-0.03634648025035858
16002624,-0.21363237500190735,-0.20345939695835114,10.220843315124512,0.033597588539123535,-0.03604104742407799,-0.03634648025035858
16003819,-0.27885904908180237,-0.3093779683113098,10.170576095581055,0.033597588539123535,-0.03604104742407799,-0.03634648025035858
16005063,-0.3566523492336273,-0.09813924133777618,9.932409286499023,0.033597588539123535,-0.03604104742407799,-0.03634648025035858
16006266,-0.3446841537952423,-0.038298241794109344,10.072437286376953,0.033597588539123535,-0.03604104742407799,-0.03634648025035858
16007475,-0.4529963731765747,0.08138375729322433,9.949164390563965,0.033597588539123535,-0.03604104742407799,-0.03634648025035858
16008695,-0.21183714270591736,-0.17772777378559113,10.21186637878418,0.033597588539123535,-0.03604104742407799,-0.03634648025035858
16009741,0.2621035873889923,-0.40093469619750977,10.01917839050293,0.033597588539123535,-0.03604104742407799,-0.03634648025035858
16010705,0.004188870079815388,-0.2363719493150711,10.013792991638184,0.033597588539123535,-0.03604104742407799,-0.03634648025035858
16011853,0.01555866003036499,-0.37939193844795227,10.006013870239258,0.033597588539123535,-0.03604104742407799,-0.03634648025035858
16013080,0.12327246367931366,-0.4805232286453247,10.127490997314453,0.033597588539123535,-0.03604104742407799,-0.03634648025035858
16014267,-0.23517513275146484,-0.1615706980228424,10.186135292053223,0.033597588539123535,-0.03604104742407799,-0.03634648025035858
16015315,-0.7109110951423645,-0.07899012416601181,10.039525032043457,0.033597588539123535,-0.03604104742407799,-0.03634648025035858
16016292,-1.0765396356582642,0.6361098289489746,10.092782974243164,0.033597588539123535,-0.03604104742407799,-0.03634648025035858
16017260,-0.6516684889793396,0.09095831960439682,10.058673858642578,0.033597588539123535,-0.03604104742407799,-0.03634648025035858
16018227,0.37699830532073975,-0.2597099542617798,9.900693893432617,0.033597588539123535,-0.03604104742407799,-0.03634648025035858
16019198,0.5966147780418396,-0.7306585907936096,10.04550838470459,0.033597588539123535,-0.03604104742407799,-0.03634648025035858
16020431,0.3225429952144623,-0.5565212965011597,10.356083869934082,0.033597588539123535,-0.03604104742407799,-0.03634648025035858
16021601,-0.22978943586349487,-0.26868608593940735,10.346508979797363,0.033597588539123535,-0.03604104742407799,-0.03634648025035858
16022815,-0.3189525306224823,-0.2285926192998886,10.12689208984375,0.033597588539123535,-0.03604104742407799,-0.03634648025035858
16024025,-0.5086485147476196,-0.1023281142115593,9.859403610229492,0.033597588539123535,-0.03604104742407799,-0.03634648025035858
16025213,-0.16875162720680237,-0.4703502655029297,9.983274459838867,0.033597588539123535,-0.03604104742407799,-0.03634648025035858
16026402,-0.023337990045547485,-0.19627848267555237,10.023367881774902,0.033597588539123535,-0.03604104742407799,-0.03634648025035858
16027594,-0.5026643872261047,-0.04248711094260216,10.188529014587402,0.033597588539123535,-0.03604104742407799,-0.03634648025035858
16028797,-0.23158466815948486,0.023936400189995766,9.996438980102539,0.033597588539123535,-0.03604104742407799,-0.03634648025035858
16029972,0.7809250354766846,-0.4434218108654022,10.192717552185059,0.033597588539123535,-0.03604104742407799,-0.03634648025035858
16031167,0.5146325826644897,-0.5690879225730896,10.253755569458008,0.033597588539123535,-0.03604104742407799,-0.03634648025035858
16032360,0.7629727721214294,-0.7414299845695496,10.293848991394043,0.033597588539123535,-0.03604104742407799,-0.03634648025035858
16033555,0.29681137204170227,-0.6253384351730347,10.219047546386719,0.033597588539123535,-0.03604104742407799,-0.03634648025035858
16034750,0.14541363716125488,-0.5702847242355347,10.21426010131836,0.033597588539123535,-0.03604104742407799,-0.03634648025035858
16035939,0.03410936892032623,-0.4230758845806122,9.93659782409668,0.033597588539123535,-0.03604104742407799,-0.03634648025035858
16037131,-0.5403642654418945,0.05146326124668121,10.003021240234375,0.033597588539123535,-0.03604104742407799,-0.03634648025035858
16038372,-0.4176901876926422,0.12327246367931366,10.093381881713867,0.033597588539123535,-0.03604104742407799,-0.03634648025035858
16039531,-0.02992049977183342,-0.21123872697353363,9.847434997558594,0.033597588539123535,-0.03604104742407799,-0.03634648025035858
16040725,-0.05026644095778465,-0.16097229719161987,10.26572322845459,0.033597588539123535,-0.03604104742407799,-0.03634648025035858
16041908,0.12746132910251617,-0.3997378945350647,10.199299812316895,0.033597588539123535,-0.03604104742407799,-0.03634648025035858
16043178,0.10352493077516556,-0.3991394639015198,10.125696182250977,0.033597588539123535,-0.03604104742407799,-0.03634648025035858
16044402,-0.1376343071460724,-0.3602428138256073,10.271109580993652,0.033597588539123535,-0.03604104742407799,-0.03634648025035858
16045599,-0.4631693363189697,-0.12865814566612244,10.140057563781738,0.033597588539123535,-0.03604104742407799,-0.03634648025035858
16046778,-0.04308551922440529,-0.23098626732826233,10.092782974243164,0.033597588539123535,-0.03604104742407799,-0.03634648025035858
16047837,0.04308551922440529,-0.4631693363189697,10.071240425109863,0.033597588539123535,-0.03604104742407799,-0.03634648025035858
16048802,-0.038298241794109344,-0.2261989861726761,10.117318153381348,0.033597588539123535,-0.03604104742407799,-0.03634648025035858
16049831,-0.19388484954833984,-0.23936399817466736,10.26931381225586,0.033597588539123535,-0.03604104742407799,-0.03634648025035858
16050831,-0.4254695177078247,0.022739579901099205,10.18673324584961,0.033597588539123535,-0.03604104742407799,-0.03634648025035858
16051794,0.007180919870734215,-0.011369789950549603,10.228622436523438,0.033597588539123535,-0.03604104742407799,-0.03634648025035858
16052756,0.1771293580532074,-0.32553502917289734,10.16040325164795,0.033597588539123535,-0.03604104742407799,-0.03634648025035858
16053722,-0.007180919870734215,-0.019149120897054672,10.115522384643555,0.033597588539123535,-0.03604104742407799,-0.03634648025035858
16054689,0.25851312279701233,-0.31356683373451233,10.23699951171875,0.033597588539123535,-0.03604104742407799,-0.03634648025035858
16055657,0.45000433921813965,-0.6516684889793396,10.37942123413086,0.033597588539123535,-0.03604104742407799,-0.03634648025035858
16056621,0.1496025025844574,-0.35545554757118225,10.149033546447754,0.033597588539123535,-0.03604104742407799,-0.03634648025035858
16058041,-0.13224861025810242,-0.2633003890514374,10.208276748657227,0.033597588539123535,-0.03604104742407799,-0.03634648025035858
16059178,-0.16635797917842865,-0.18670392036437988,10.149033546447754,0.033597588539123535,-0.03604104742407799,-0.03634648025035858
16060336,-0.6947540044784546,0.24774174392223358,10.027556419372559,0.033597588539123535,-0.03604104742407799,-0.03634648025035858
16061551,-0.23936399817466736,-0.026928450912237167,10.032941818237305,0.033597588539123535,-0.03604104742407799,-0.03634648025035858
16062719,-0.02992049977183342,-0.2950161397457123,9.933606147766113,0.033597588539123535,-0.03604104742407799,-0.03634648025035858
16063915,0.04607757180929184,-0.34109368920326233,10.07303524017334,0.033597588539123535,-0.03604104742407799,-0.03634648025035858
16065097,0.26868608593940735,-0.37101420760154724,10.21426010131836,0.033597588539123535,-0.03604104742407799,-0.03634648025035858
16066289,0.05924259126186371,-0.17413730919361115,10.343517303466797,0.033597588539123535,-0.03604104742407799,-0.03634648025035858
16067514,-0.15199613571166992,-0.27467018365859985,10.244180679321289,0.03420845419168472,-0.03481931984424591,-0.04001167416572571
16068701,-0.15618501603603363,-0.4506027400493622,9.993447303771973,0.03420845419168472,-0.03481931984424591,-0.04001167416572571
16069930,-0.038896650075912476,-0.4392329454421997,9.978487014770508,0.03420845419168472,-0.03481931984424591,-0.04001167416572571
16071127,-0.2285926192998886,-0.18969596922397614,10.147238731384277,0.03420845419168472,-0.03481931984424591,-0.04001167416572571
16072328,-0.18371187150478363,-0.15259455144405365,10.12928581237793,0.03420845419168472,-0.03481931984424591,-0.04001167416572571
16073587,-0.5068532824516296,0.35904601216316223,10.001226425170898,0.03420845419168472,-0.03481931984424591,-0.04001167416572571
16074783,-0.26868608593940735,0.012566610239446163,10.059870719909668,0.03420845419168472,-0.03481931984424591,-0.04001167416572571
16075968,-0.22201010584831238,0.18071982264518738,9.995841026306152,0.03420845419168472,-0.03481931984424591,-0.04001167416572571
16077161,-0.15618501603603363,0.11130426079034805,9.987462997436523,0.03420845419168472,-0.03481931984424591,-0.04001167416572571
16078355,-0.14661045372486115,0.04248711094260216,10.289660453796387,0.03420845419168472,-0.03481931984424591,-0.04001167416572571
16079622,0.14900408685207367,-0.35366031527519226,10.147238731384277,0.03420845419168472,-0.03481931984424591,-0.04001167416572571
16080808,0.2537258565425873,-0.2603083550930023,10.194513320922852,0.03420845419168472,-0.03481931984424591,-0.04001167416572571
16081856,-0.2555210590362549,-0.2124355584383011,10.159805297851562,0.03420845419168472,-0.03481931984424591,-0.04001167416572571
16082822,-0.5008691549301147,-0.1376343071460724,10.18194580078125,0.03420845419168472,-0.03481931984424591,-0.04001167416572571
16083786,-0.4392329454421997,-0.1280597448348999,10.062264442443848,0.03420845419168472,-0.03481931984424591,-0.04001167416572571
16084750,-0.4057219922542572,0.035306189209222794,9.962329864501953,0.03420845419168472,-0.03481931984424591,-0.04001167416572571
16085714,0.2734733819961548,-0.5409626364707947,10.072437286376953,0.03420845419168472,-0.03481931984424591,-0.04001167416572571
16086886,0.04607757180929184,-0.1849086880683899,10.173568725585938,0.03420845419168472,-0.03481931984424591,-0.04001167416572571
16087895,0.14661045372486115,-0.41649335622787476,10.180749893188477,0.03420845419168472,-0.03481931984424591,-0.04001167416572571
16088863,0.4721454977989197,-0.4667598009109497,10.102357864379883,0.03420845419168472,-0.03481931984424591,-0.04001167416572571
16089928,0.23876559734344482,-0.5230103731155396,10.123302459716797,0.03420845419168472,-0.03481931984424591,-0.04001167416572571
16091150,0.3464793860912323,-0.6672271490097046,10.189725875854492,0.03420845419168472,-0.03481931984424591,-0.04001167416572571
16092366,0.07061237841844559,-0.4649645686149597,10.241189002990723,0.03420845419168472,-0.03481931984424591,-0.04001167416572571
16093540,-0.34348735213279724,-0.3470778167247772,10.164592742919922,0.03420845419168472,-0.03481931984424591,-0.04001167416572571
16094738,0.020944349467754364,-0.4374377131462097,10.167584419250488,0.03420845419168472,-0.03481931984424591,-0.04001167416572571
16095912,-0.11668995022773743,-0.27706384658813477,10.01917839050293,0.03420845419168472,-0.03481931984424591,-0.04001167416572571
16097145,-0.40871402621269226,0.16695639491081238,10.178954124450684,0.03420845419168472,-0.03481931984424591,-0.04001167416572571
16098302,-0.1926880180835724,-0.11130426079034805,10.02157211303711,0.03420845419168472,-0.03481931984424591,-0.04001167416572571
16099364,0.08617103844881058,-0.1908927857875824,10.096972465515137,0.03420845419168472,-0.03481931984424591,-0.04001167416572571
16100340,0.25492265820503235,-0.43444567918777466,10.151427268981934,0.03420845419168472,-0.03481931984424591,-0.04001167416572571
16101485,-0.24534809589385986,-0.22919103503227234,10.256747245788574,0.03420845419168472,-0.03481931984424591,-0.04001167416572571
16102656,-0.1298549771308899,-0.30638593435287476,10.223834991455078,0.03420845419168472,-0.03481931984424591,-0.04001167416572571
16103852,0.2800558805465698,-0.29621294140815735,10.205883026123047,0.03420845419168472,-0.03481931984424591,-0.04001167416572571
16105089,0.35186508297920227,-0.5529308319091797,10.134672164916992,0.03420845419168472,-0.03481931984424591,-0.04001167416572571
16106280,0.32433822751045227,-0.7563902735710144,10.266322135925293,0.03420845419168472,-0.03481931984424591,-0.04001167416572571
16107496,0.09395036846399307,-0.5523324608802795,10.204087257385254,0.03420845419168472,-0.03481931984424591,-0.04001167416572571
16108686,-0.1849086880683899,-0.15977546572685242,10.07303524017334,0.03420845419168472,-0.03481931984424591,-0.04001167416572571
16109857,-0.43624088168144226,-0.11250108480453491,9.931212425231934,0.03420845419168472,-0.03481931984424591,-0.04001167416572571
16111070,0.14900408685207367,-0.33211755752563477,9.963526725769043,0.03420845419168472,-0.03481931984424591,-0.04001167416572571
16112120,0.0610378198325634,-0.3207477629184723,10.037729263305664,0.03420845419168472,-0.03481931984424591,-0.04001167416572571
16113096,-0.08138375729322433,-0.24714332818984985,10.014989852905273,0.03420845419168472,-0.03481931984424591,-0.04001167416572571
16114242,0.22679738700389862,-0.44761067628860474,10.195111274719238,0.03420845419168472,-0.03481931984424591,-0.04001167416572571
16115518,0.10172969847917557,-0.4859089255332947,9.962329864501953,0.03420845419168472,-0.03481931984424591,-0.04001167416572571
16116706,-0.01555866003036499,-0.30638593435287476,10.251361846923828,0.03420845419168472,-0.03481931984424591,-0.04001167416572571
16117750,-0.05146326124668121,-0.32553502917289734,10.214859008789062,0.03420845419168472,-0.03481931984424591,-0.04001167416572571
16118717,-0.012566610239446163,-0.5654974579811096,10.252558708190918,0.03420845419168472,-0.03481931984424591,-0.04001167416572571
16119683,-0.2441512793302536,-0.31955093145370483,10.161600112915039,0.03420845419168472,-0.03481931984424591,-0.04001167416572571
16120803,-0.40033629536628723,-0.1693500280380249,10.023367881774902,0.03420845419168472,-0.03481931984424591,-0.04001167416572571
16121783,-0.10651697963476181,-0.22380533814430237,10.038328170776367,0.03420845419168472,-0.03481931984424591,-0.04001167416572571
16123064,-0.14122475683689117,-0.08377739787101746,10.124499320983887,0.03420845419168472,-0.03481931984424591,-0.04001167416572571
16124265,-0.08916308730840683,-0.09395036846399307,10.113727569580078,0.03420845419168472,-0.03481931984424591,-0.04001167416572571
16125524,-0.13344542682170868,-0.07899012416601181,10.151427268981934,0.03420845419168472,-0.03481931984424591,-0.04001167416572571
16126770,-0.1753341257572174,-0.18191663920879364,10.030548095703125,0.03420845419168472,-0.03481931984424591,-0.04001167416572571
16128059,-0.03111732006072998,-0.48770415782928467,10.01798152923584,0.03420845419168472,-0.03481931984424591,-0.04001167416572571
16129272,-0.1436184048652649,-0.23098626732826233,10.199898719787598,0.03420845419168472,-0.03481931984424591,-0.04001167416572571
16130468,-0.31775569915771484,0.05146326124668121,10.025162696838379,0.03420845419168472,-0.03481931984424591,-0.04001167416572571
16131657,0.08198217302560806,-0.4075172245502472,10.088594436645508,0.03420845419168472,-0.03481931984424591,-0.04001167416572571
16132883,0.2674892842769623,-0.4410281777381897,9.946770668029785,0.03420845419168472,-0.03481931984424591,-0.04001167416572571
16134106,0.29022884368896484,-0.5852450132369995,10.180150985717773,0.03420845419168472,-0.03481931984424591,-0.04001167416572571
16135303,0.45957887172698975,-0.6917619705200195,10.064059257507324,0.03420845419168472,-0.03481931984424591,-0.04001167416572571
16136511,0.1968768984079361,-0.5044596195220947,10.081413269042969,0.03420845419168472,-0.03481931984424591,-0.04001167416572571
16137705,-0.09335196018218994,-0.23936399817466736,10.001824378967285,0.03420845419168472,-0.03481931984424591,-0.04001167416572571
16138925,-0.3267318606376648,-0.0017952299676835537,10.108342170715332,0.03420845419168472,-0.03481931984424591,-0.04001167416572571
16139989,-0.30459070205688477,0.04847121238708496,10.011998176574707,0.03420845419168472,-0.03481931984424591,-0.04001167416572571
16141251,-0.18969596922397614,-0.1400279402732849,10.071240425109863,0.03420845419168472,-0.03481931984424591,-0.04001167416572571
16142443,0.05744735896587372,-0.17653095722198486,10.016186714172363,0.03420845419168472,-0.03481931984424591,-0.04001167416572571
16143694,-0.24474969506263733,-0.20046734809875488,10.26931381225586,0.03420845419168472,-0.03481931984424591,-0.04001167416572571
16144884,0.04248711094260216,-0.37520307302474976,10.004817008972168,0.03176499158143997,-0.03878994286060333,-0.00427605677396059
16146121,0.33570802211761475,-0.6414955258369446,10.006013870239258,0.03176499158143997,-0.03878994286060333,-0.00427605677396059
16147252,0.06223464012145996,-0.5846465826034546,10.148435592651367,0.03176499158143997,-0.03878994286060333,-0.00427605677396059
16148485,-0.05744735896587372,-0.46017730236053467,10.175363540649414,0.03176499158143997,-0.03878994286060333,-0.00427605677396059
16149556,-0.16815321147441864,-0.16635797917842865,10.087995529174805,0.03176499158143997,-0.03878994286060333,-0.00427605677396059
16150546,-0.1771293580532074,-0.2890320420265198,10.014989852905273,0.03176499158143997,-0.03878994286060333,-0.00427605677396059
16151511,-0.07958853244781494,-0.17832617461681366,10.163395881652832,0.03176499158143997,-0.03878994286060333,-0.00427605677396059
16152961,-0.5056564807891846,0.11130426079034805,10.198701858520508,0.03176499158143997,-0.03878994286060333,-0.00427605677396059
16154029,-0.3351095914840698,-0.06043941155076027,10.061067581176758,0.03176499158143997,-0.03878994286060333,-0.00427605677396059
16154995,-0.37280943989753723,-0.010771379806101322,10.165190696716309,0.03176499158143997,-0.03878994286060333,-0.00427605677396059
16155961,-0.28663837909698486,-0.06462828069925308,10.031147003173828,0.03176499158143997,-0.03878994286060333,-0.00427605677396059
16156926,-0.06402987241744995,-0.2501353919506073,10.030548095703125,0.03176499158143997,-0.03878994286060333,-0.00427605677396059
16157893,-0.2597099542617798,-0.3291254937648773,10.103554725646973,0.03176499158143997,-0.03878994286060333,-0.00427605677396059
16158857,-0.2226085215806961,-0.22799421846866608,10.085601806640625,0.03176499158143997,-0.03878994286060333,-0.00427605677396059
16159820,-0.4350440800189972,-0.0807853490114212,10.048501014709473,0.03176499158143997,-0.03878994286060333,-0.00427605677396059
16161122,-0.3500698506832123,-0.20405781269073486,10.082012176513672,0.03176499158143997,-0.03878994286060333,-0.00427605677396059
16162348,-0.4015331268310547,-0.2818511128425598,10.057476997375488,0.03176499158143997,-0.03878994286060333,-0.00427605677396059
16163585,-0.4918930232524872,0.11130426079034805,10.152026176452637,0.03176499158143997,-0.03878994286060333,-0.00427605677396059
16164742,-0.28484317660331726,-0.04188869893550873,10.129884719848633,0.03176499158143997,-0.03878994286060333,-0.00427605677396059
16165933,-0.2656940519809723,0.037699829787015915,10.129884719848633,0.03176499158143997,-0.03878994286060333,-0.00427605677396059
16167144,-0.0688171535730362,-0.13643747568130493,10.153820991516113,0.03176499158143997,-0.03878994286060333,-0.00427605677396059
16168354,-0.08377739787101746,0.038298241794109344,10.080216407775879,0.03176499158143997,-0.03878994286060333,-0.00427605677396059
16169528,-0.11668995022773743,-0.10412333905696869,10.144845008850098,0.03176499158143997,-0.03878994286060333,-0.00427605677396059
16170699,-0.29441770911216736,0.07001397013664246,10.155017852783203,0.03176499158143997,-0.03878994286060333,-0.00427605677396059
16171871,-0.20585304498672485,0.04607757180929184,10.067051887512207,0.03176499158143997,-0.03878994286060333,-0.00427605677396059
16173073,-0.14541363716125488,0.13045337796211243,10.169379234313965,0.03176499158143997,-0.03878994286060333,-0.00427605677396059
16174278,-0.3913601338863373,-0.24175764620304108,10.201693534851074,0.03176499158143997,-0.03878994286060333,-0.00427605677396059
16175469,-0.13105179369449615,-0.12446928024291992,10.137663841247559,0.03176499158143997,-0.03878994286060333,-0.00427605677396059
16176668,-0.0807853490114212,-0.38717126846313477,10.134073257446289,0.03176499158143997,-0.03878994286060333,-0.00427605677396059
16177849,0.45539000630378723,-0.6534637212753296,10.04550838470459,0.03176499158143997,-0.03878994286060333,-0.00427605677396059
16179064,0.04368393123149872,-0.4308552145957947,10.152624130249023,0.03176499158143997,-0.03878994286060333,-0.00427605677396059
16180258,-0.11130426079034805,-0.16695639491081238,10.086798667907715,0.03176499158143997,-0.03878994286060333,-0.00427605677396059
16181423,-0.1908927857875824,-0.1651611626148224,10.01798152923584,0.03176499158143997,-0.03878994286060333,-0.00427605677396059
16182672,0.09514719247817993,-0.30219703912734985,10.005414962768555,0.03176499158143997,-0.03878994286060333,-0.00427605677396059
16183852,-0.2974097728729248,-0.0807853490114212,10.080216407775879,0.03176499158143997,-0.03878994286060333,-0.00427605677396059
16184902,-0.40691879391670227,0.04308551922440529,10.234606742858887,0.03176499158143997,-0.03878994286060333,-0.00427605677396059
16185870,-0.4506027400493622,0.0035904599353671074,10.122105598449707,0.03176499158143997,-0.03878994286060333,-0.00427605677396059
16186840,-0.1537913680076599,-0.11908359080553055,10.132278442382812,0.03176499158143997,-0.03878994286060333,-0.00427605677396059
16187800,0.007779330015182495,-0.19388484954833984,10.222040176391602,0.03176499158143997,-0.03878994286060333,-0.00427605677396059
16188765,0.1789245903491974,-0.31237003207206726,10.175363540649414,0.03176499158143997,-0.03878994286060333,-0.00427605677396059
16189724,0.2890320420265198,-0.4960818886756897,10.13167953491211,0.03176499158143997,-0.03878994286060333,-0.00427605677396059
16190904,-0.07360442727804184,-0.2363719493150711,10.058074951171875,0.03176499158143997,-0.03878994286060333,-0.00427605677396059
16191988,0.25312742590904236,-0.6672271490097046,10.204087257385254,0.03176499158143997,-0.03878994286060333,-0.00427605677396059
16192964,-0.037101421505212784,-0.5026643872261047,10.220244407653809,0.03176499158143997,-0.03878994286060333,-0.00427605677396059
16194065,-0.22978943586349487,-0.2914256751537323,10.140057563781738,0.03176499158143997,-0.03878994286060333,-0.00427605677396059
16195395,-0.2441512793302536,-0.04069187864661217,10.077224731445312,0.03176499158143997,-0.03878994286060333,-0.00427605677396059
16196561,-0.28244951367378235,-0.04847121238708496,10.10415267944336,0.03176499158143997,-0.03878994286060333,-0.00427605677396059
16197758,-0.32194459438323975,-0.03111732006072998,10.221441268920898,0.03176499158143997,-0.03878994286060333,-0.00427605677396059
16198811,-0.18251505494117737,-0.07599806785583496,10.134073257446289,0.03176499158143997,-0.03878994286060333,-0.00427605677396059
16199991,-0.34947144985198975,0.10711538791656494,10.213662147521973,0.03176499158143997,-0.03878994286060333,-0.00427605677396059
16201164,-0.5098453164100647,0.1926880180835724,10.141254425048828,0.03176499158143997,-0.03878994286060333,-0.00427605677396059
16202353,-0.2088450938463211,-0.06522668898105621,10.188529014587402,0.03176499158143997,-0.03878994286060333,-0.00427605677396059
16203528,-0.1908927857875824,-0.09813924133777618,10.141852378845215,0.03176499158143997,-0.03878994286060333,-0.00427605677396059
16204713,-0.2321830838918686,-0.1968768984079361,10.060468673706055,0.03176499158143997,-0.03878994286060333,-0.00427605677396059
16205905,-0.08796627074480057,-0.04906962066888809,10.080216407775879,0.03176499158143997,-0.03878994286060333,-0.00427605677396059
16207113,0.12087882310152054,-0.3231413960456848,10.138860702514648,0.03176499158143997,-0.03878994286060333,-0.00427605677396059
16208281,-0.08557263016700745,-0.19627848267555237,10.114924430847168,0.03176499158143997,-0.03878994286060333,-0.00427605677396059
16209336,-0.1537913680076599,-0.2950161397457123,10.099964141845703,0.03176499158143997,-0.03878994286060333,-0.00427605677396059
16210537,0.14122475683689117,-0.5565212965011597,10.085601806640625,0.03176499158143997,-0.03878994286060333,-0.00427605677396059
16211621,0.17413730919361115,-0.5637022256851196,10.13167953491211,0.03176499158143997,-0.03878994286060333,-0.00427605677396059
16212594,-0.12267404794692993,-0.5044596195220947,10.174166679382324,0.03176499158143997,-0.03878994286060333,-0.00427605677396059
16213565,-0.4769327640533447,-0.30219703912734985,10.180749893188477,0.03176499158143997,-0.03878994286060333,-0.00427605677396059
16214537,-0.31416526436805725,-0.12087882310152054,10.043115615844727,0.03176499158143997,-0.03878994286060333,-0.00427605677396059
16215509,-0.34169211983680725,-0.08198217302560806,10.140655517578125,0.03176499158143997,-0.03878994286060333,-0.00427605677396059
16216474,-0.056250542402267456,-0.33570802211761475,10.205883026123047,0.03176499158143997,-0.03878994286060333,-0.00427605677396059
16217446,0.16276751458644867,-0.26689085364341736,10.095176696777344,0.03176499158143997,-0.03878994286060333,-0.00427605677396059
16218418,-0.23397831618785858,-0.007779330015182495,10.152026176452637,0.03176499158143997,-0.03878994286060333,-0.00427605677396059
16219390,-0.3285270929336548,0.10651697963476181,10.267518997192383,0.03176499158143997,-0.03878994286060333,-0.00427605677396059
16220348,-0.3440857529640198,0.22978943586349487,10.141254425048828,0.03176499158143997,-0.03878994286060333,-0.00427605677396059
16221324,0.04368393123149872,-0.18550710380077362,9.952754974365234,0.03176499158143997,-0.03878994286060333,-0.00427605677396059
16222302,-0.12387087196111679,-0.04368393123149872,10.189725875854492,0.03298672288656235,-0.03878994286060333,0.02168571576476097
16223273,-0.34767621755599976,0.21961647272109985,10.281880378723145,0.03298672288656235,-0.03878994286060333,0.02168571576476097
16224243,-0.35725077986717224,0.24474969506263733,10.118515014648438,0.03298672288656235,-0.03878994286060333,0.02168571576476097
16225214,0.004787280224263668,-0.14062635600566864,10.1879301071167,0.03298672288656235,-0.03878994286060333,0.02168571576476097
16226355,-0.02872367948293686,-0.3440857529640198,10.208874702453613,0.03298672288656235,-0.03878994286060333,0.02168571576476097
16227567,-0.007779330015182495,-0.46197253465652466,10.195709228515625,0.03298672288656235,-0.03878994286060333,0.02168571576476097
16228735,0.2633003890514374,-0.5487419962882996,10.032941818237305,0.03298672288656235,-0.03878994286060333,0.02168571576476097
16229908,-0.05684895068407059,-0.48770415782928467,10.019777297973633,0.03298672288656235,-0.03878994286060333,0.02168571576476097
16231089,-0.1513977348804474,-0.5206167101860046,10.159805297851562,0.03298672288656235,-0.03878994286060333,0.02168571576476097
16232284,-0.38477763533592224,-0.02932208962738514,10.120309829711914,0.03298672288656235,-0.03878994286060333,0.02168571576476097
16233479,-0.2800558805465698,-0.02932208962738514,9.970707893371582,0.03298672288656235,-0.03878994286060333,0.02168571576476097
16234686,-0.22201010584831238,-0.24056082963943481,10.188529014587402,0.03298672288656235,-0.03878994286060333,0.02168571576476097
16235875,-0.04847121238708496,-0.27227655053138733,10.079019546508789,0.03298672288656235,-0.03878994286060333,0.02168571576476097
16237063,-0.2621035873889923,0.023936400189995766,10.152624130249023,0.03298672288656235,-0.03878994286060333,0.02168571576476097
16238258,-0.5559229254722595,0.19388484954833984,10.21306324005127,0.03298672288656235,-0.03878994286060333,0.02168571576476097
16239482,-0.39315536618232727,0.24295446276664734,9.93899154663086,0.03298672288656235,-0.03878994286060333,0.02168571576476097
16240680,-0.2656940519809723,0.08736786246299744,10.066452980041504,0.03298672288656235,-0.03878994286060333,0.02168571576476097
16241863,0.07240761071443558,-0.25312742590904236,10.113128662109375,0.03298672288656235,-0.03878994286060333,0.02168571576476097
16242926,0.04966802895069122,-0.15857864916324615,10.200496673583984,0.03298672288656235,-0.03878994286060333,0.02168571576476097
16244189,-0.37939193844795227,-0.0610378198325634,10.053886413574219,0.03298672288656235,-0.03878994286060333,0.02168571576476097
16245411,-0.4350440800189972,-0.3309207260608673,10.18314266204834,0.03298672288656235,-0.03878994286060333,0.02168571576476097
16246593,-0.056250542402267456,-0.5942211151123047,9.971904754638672,0.03298672288656235,-0.03878994286060333,0.02168571576476097
16247826,0.32613345980644226,-0.6732112765312195,10.067649841308594,0.03298672288656235,-0.03878994286060333,0.02168571576476097
16249039,0.11848518252372742,-0.40691879391670227,10.099964141845703,0.03298672288656235,-0.03878994286060333,0.02168571576476097
16250280,-0.02872367948293686,-0.18790073692798615,10.062862396240234,0.03298672288656235,-0.03878994286060333,0.02168571576476097
16251496,-0.11010744422674179,-0.2680876851081848,10.032343864440918,0.03298672288656235,-0.03878994286060333,0.02168571576476097
16252553,-0.13942952454090118,-0.10113129019737244,10.123900413513184,0.03298672288656235,-0.03878994286060333,0.02168571576476097
16253514,-0.08018694072961807,-0.2890320420265198,10.011399269104004,0.03298672288656235,-0.03878994286060333,0.02168571576476097
16254546,-0.21004191040992737,-0.2261989861726761,10.080216407775879,0.03298672288656235,-0.03878994286060333,0.02168571576476097
16255550,0.008377740159630775,-0.30459070205688477,10.118515014648438,0.03298672288656235,-0.03878994286060333,0.02168571576476097
16256523,-0.021542759612202644,-0.25851312279701233,10.080815315246582,0.03298672288656235,-0.03878994286060333,0.02168571576476097
16257495,-0.3069843351840973,-0.01675548031926155,10.21545696258545,0.03298672288656235,-0.03878994286060333,0.02168571576476097
16258461,-0.15079931914806366,-0.25312742590904236,10.21545696258545,0.03298672288656235,-0.03878994286060333,0.02168571576476097
16259432,-0.03410936892032623,-0.34348735213279724,10.120908737182617,0.03298672288656235,-0.03878994286060333,0.02168571576476097
16260403,-0.1142963096499443,-0.20944350957870483,10.138262748718262,0.03298672288656235,-0.03878994286060333,0.02168571576476097
16261371,-0.17294049263000488,-0.07659648358821869,10.187332153320312,0.03298672288656235,-0.03878994286060333,0.02168571576476097
16262595,-0.1968768984079361,-0.06941556185483932,10.049697875976562,0.03298672288656235,-0.03878994286060333,0.02168571576476097
16263777,-0.2555210590362549,0.20824667811393738,10.114325523376465,0.03298672288656235,-0.03878994286060333,0.02168571576476097
16264976,-0.01795230060815811,-0.1950816661119461,10.210071563720703,0.03298672288656235,-0.03878994286060333,0.02168571576476097
16266187,0.07659648358821869,-0.42247745394706726,10.029950141906738,0.03298672288656235,-0.03878994286060333,0.02168571576476097
16267375,0.008377740159630775,-0.25492265820503235,10.111932754516602,0.03298672288656235,-0.03878994286060333,0.02168571576476097
16268548,-0.3835808038711548,-0.03111732006072998,9.99165153503418,0.03298672288656235,-0.03878994286060333,0.02168571576476097
16269731,-0.46017730236053467,0.15319296717643738,10.062862396240234,0.03298672288656235,-0.03878994286060333,0.02168571576476097
16270935,-0.10292652249336243,-0.15917706489562988,10.102357864379883,0.03298672288656235,-0.03878994286060333,0.02168571576476097
16272157,0.022141169756650925,-0.24175764620304108,10.167584419250488,0.03298672288656235,-0.03878994286060333,0.02168571576476097
16273349,0.0688171535730362,-0.4099108576774597,10.222638130187988,0.03298672288656235,-0.03878994286060333,0.02168571576476097
16274551,-0.07121079415082932,-0.4847120940685272,10.243582725524902,0.03298672288656235,-0.03878994286060333,0.02168571576476097
16275740,-0.4039267599582672,-0.16456274688243866,10.065855026245117,0.03298672288656235,-0.03878994286060333,0.02168571576476097
16276931,-0.3387000560760498,-0.2579147219657898,10.278888702392578,0.03298672288656235,-0.03878994286060333,0.02168571576476097
16278139,-0.47753119468688965,-0.17174367606639862,10.252558708190918,0.03298672288656235,-0.03878994286060333,0.02168571576476097
16279351,-0.06762032955884933,-0.4410281777381897,10.127490997314453,0.03298672288656235,-0.03878994286060333,0.02168571576476097
16280545,-0.29800817370414734,0.13883112370967865,10.15681266784668,0.03298672288656235,-0.03878994286060333,0.02168571576476097
16281731,-0.09694242477416992,-0.03111732006072998,10.180150985717773,0.03298672288656235,-0.03878994286060333,0.02168571576476097
16282929,-0.31237003207206726,0.09574560075998306,10.119711875915527,0.03298672288656235,-0.03878994286060333,0.02168571576476097
16284143,-0.48710575699806213,0.04248711094260216,10.24059009552002,0.03298672288656235,-0.03878994286060333,0.02168571576476097
16285343,-0.21901805698871613,0.007779330015182495,10.109539031982422,0.03298672288656235,-0.03878994286060333,0.02168571576476097
16286395,-0.19627848267555237,0.008976150304079056,10.190323829650879,0.03298672288656235,-0.03878994286060333,0.02168571576476097
16287362,-0.3955490291118622,0.10113129019737244,10.18433952331543,0.03298672288656235,-0.03878994286060333,0.02168571576476097
16288336,-0.29681137204170227,0.01735389046370983,10.266322135925293,0.03298672288656235,-0.03878994286060333,0.02168571576476097
16289306,-0.24893856048583984,-0.10711538791656494,10.204087257385254,0.03298672288656235,-0.03878994286060333,0.02168571576476097
16290278,-0.4667598009109497,0.12686292827129364,10.119711875915527,0.03298672288656235,-0.03878994286060333,0.02168571576476097
16291242,-0.2597099542617798,-0.10113129019737244,10.180150985717773,0.03298672288656235,-0.03878994286060333,0.02168571576476097
16292213,-0.027526861056685448,-0.32373982667922974,10.034138679504395,0.03298672288656235,-0.03878994286060333,0.02168571576476097
16293185,-0.1926880180835724,-0.11908359080553055,10.036532402038574,0.03298672288656235,-0.03878994286060333,0.02168571576476097
16294459,-0.4111076891422272,0.23756876587867737,10.140655517578125,0.03298672288656235,-0.03878994286060333,0.02168571576476097
16295703,-0.41409972310066223,0.10412333905696869,10.245377540588379,0.03298672288656235,-0.03878994286060333,0.02168571576476097
16296867,-0.26689085364341736,-0.06402987241744995,10.182544708251953,0.03298672288656235,-0.03878994286060333,0.02168571576476097
16298068,-0.09514719247817993,-0.1340438425540924,10.071240425109863,0.03298672288656235,-0.03878994286060333,0.02168571576476097
16299274,0.4176901876926422,-0.6181575655937195,10.277093887329102,0.03420845419168472,-0.035124752670526505,-0.012828170321881771
16300473,0.14242158830165863,-0.4434218108654022,10.136466979980469,0.03420845419168472,-0.035124752670526505,-0.012828170321881771
16301689,0.03410936892032623,-0.42247745394706726,10.254353523254395,0.03420845419168472,-0.035124752670526505,-0.012828170321881771
16302941,-0.19807371497154236,-0.1968768984079361,10.098169326782227,0.03420845419168472,-0.035124752670526505,-0.012828170321881771
16304159,-0.24953697621822357,-0.18191663920879364,10.07662582397461,0.03420845419168472,-0.035124752670526505,-0.012828170321881771
16305205,-0.054455310106277466,-0.2992050051689148,10.152624130249023,0.03420845419168472,-0.035124752670526505,-0.012828170321881771
16306193,0.04906962066888809,-0.37101420760154724,10.233409881591797,0.03420845419168472,-0.035124752670526505,-0.012828170321881771
16307168,0.2890320420265198,-0.6612430810928345,10.192119598388672,0.03420845419168472,-0.035124752670526505,-0.012828170321881771
16308139,0.07719489187002182,-0.3249366283416748,10.12689208984375,0.03420845419168472,-0.035124752670526505,-0.012828170321881771
16309108,-0.46137410402297974,0.02932208962738514,10.12928581237793,0.03420845419168472,-0.035124752670526505,-0.012828170321881771
16310083,-0.31775569915771484,0.05804577097296715,10.201095581054688,0.03420845419168472,-0.035124752670526505,-0.012828170321881771
16311049,-0.2734733819961548,0.0335109606385231,10.094578742980957,0.03420845419168472,-0.035124752670526505,-0.012828170321881771
16312339,-0.33810165524482727,-0.1160915419459343,9.951558113098145,0.03420845419168472,-0.035124752670526505,-0.012828170321881771
16313519,-0.0963440090417862,-0.36742374300956726,10.383011817932129,0.03420845419168472,-0.035124752670526505,-0.012828170321881771
16314714,-0.35186508297920227,-0.12506769597530365,10.135869026184082,0.03420845419168472,-0.035124752670526505,-0.012828170321881771
16315872,-0.06582509726285934,-0.2579147219657898,10.085601806640625,0.03420845419168472,-0.035124752670526505,-0.012828170321881771
16317043,0.46556299924850464,-0.7533981800079346,10.069445610046387,0.03420845419168472,-0.035124752670526505,-0.012828170321881771
16318092,0.6480780243873596,-0.9993447065353394,10.245976448059082,0.03420845419168472,-0.035124752670526505,-0.012828170321881771
16319059,0.4218790531158447,-0.7815234661102295,10.24178695678711,0.03420845419168472,-0.035124752670526505,-0.012828170321881771
16320347,0.19568006694316864,-0.7504061460494995,10.035934448242188,0.03420845419168472,-0.035124752670526505,-0.012828170321881771
16321510,-0.01615707017481327,-0.5283960103988647,10.115522384643555,0.03420845419168472,-0.035124752670526505,-0.012828170321881771
16322549,-0.09514719247817993,-0.3943521976470947,10.131081581115723,0.03420845419168472,-0.035124752670526505,-0.012828170321881771
16323535,-0.10412333905696869,-0.3961474299430847,10.195709228515625,0.03420845419168472,-0.035124752670526505,-0.012828170321881771
16324510,-0.08497422188520432,-0.2800558805465698,10.092185020446777,0.03420845419168472,-0.035124752670526505,-0.012828170321881771
16325475,-0.0885646790266037,-0.3488730192184448,10.013792991638184,0.03420845419168472,-0.035124752670526505,-0.012828170321881771
16326445,-0.13045337796211243,-0.3913601338863373,10.041319847106934,0.03420845419168472,-0.035124752670526505,-0.012828170321881771
16327683,-0.1950816661119461,-0.11549313366413116,10.180150985717773,0.03420845419168472,-0.035124752670526505,-0.012828170321881771
16328835,-0.20046734809875488,0.006582510191947222,10.07303524017334,0.03420845419168472,-0.035124752670526505,-0.012828170321881771
16330028,-0.2028609961271286,-0.05864417925477028,10.152624130249023,0.03420845419168472,-0.035124752670526505,-0.012828170321881771
16331217,-0.3033938705921173,-0.0867694541811943,10.07423210144043,0.03420845419168472,-0.035124752670526505,-0.012828170321881771
16332382,0.04906962066888809,-0.32613345980644226,10.15681266784668,0.03420845419168472,-0.035124752670526505,-0.012828170321881771
16333567,0.4643661677837372,-0.6043940782546997,10.044910430908203,0.03420845419168472,-0.035124752670526505,-0.012828170321881771
16334745,0.28304794430732727,-0.5517340302467346,10.07542896270752,0.03420845419168472,-0.035124752670526505,-0.012828170321881771
16335923,0.3973442316055298,-0.6283305287361145,10.003620147705078,0.03420845419168472,-0.035124752670526505,-0.012828170321881771
16337122,0.19747529923915863,-0.3422905206680298,10.01798152923584,0.03420845419168472,-0.035124752670526505,-0.012828170321881771
16338308,-0.21363237500190735,-0.4021315276622772,10.070043563842773,0.03420845419168472,-0.035124752670526505,-0.012828170321881771
