time_micros,accel_x,accel_y,accel_z,velocity_x,velocity_y,velocity_z,distance_x,distance_y,distance_z,distance_total
15322722,-0.3105747997760772,0.0759980678558349,0.25525611877441357,0.0,0.0,0.0,0.0,0.0,0.0,0.0
15323934,-0.3973442316055298,0.0765964835882186,0.46350330352783153,-0.0004815812087059021,9.283493810892095e-05,0.0005617660038757318,-5.836764249515533e-07,1.1251594498801218e-07,6.808603966973869e-07,9.038301204937212e-07
15325017,-0.6785969734191895,0.2010657638311386,0.1541246795654292,-0.0012165017309188843,0.00031058916033804406,0.0007286830318450916,-1.9011477995367048e-06,4.4888400563411385e-07,1.470024120185621e-06,2.44475575878755e-06
15325997,-0.4787279963493347,0.1017296984791755,0.2564529800415034,-0.0016856551673412323,0.00041028426484763603,0.0009800069522857648,-3.5530898635311126e-06,8.509625851847971e-07,2.4304309334256704e-06,4.388117981762149e-06
15327015,-0.2668908536434173,0.0376998297870159,0.25764984130859325,-0.001957350056350231,0.0004486626915708182,0.0012422944907379127,-5.545672220895647e-06,1.30770120520389e-06,3.6950867249968656e-06,6.791040327442727e-06
15328015,-0.4386345446109772,-0.0987376496195793,0.18344730377197216,-0.002395984600961208,0.0003499250419512389,0.0014257417945098849,-7.941656821856857e-06,1.6576262471551288e-06,5.12082851950675e-06,9.59377519945078e-06
15328979,-0.3446841537952423,-0.1065169796347618,0.3079161071777339,-0.0027282601252198216,0.0002472426735833285,0.0017225729218292203,-1.0571699582568764e-05,1.8959681844894575e-06,6.781388816150119e-06,1.2702077062295235e-05
15329946,-0.3458809852600097,-0.0915567278861999,0.3587812805175776,-0.003062727037966251,0.0001587073177173732,0.002069514420089718,-1.353335662828213e-05,2.049438160722157e-06,8.782609260376875e-06,1.6263030585452075e-05
15330913,-0.2501353919506073,-0.0879662707448005,0.44255870819091747,-0.0033046079619824882,7.364393390715112e-05,0.002497468690910335,-1.6728912527519195e-05,2.120651844810372e-06,1.1197661484487168e-05,2.024206761478317e-05
15331880,-0.3602428138256073,0.0640298724174499,0.21037525177001903,-0.0036529627629518506,0.00013556082053482515,0.0027009015593719436,-2.0261327519293636e-05,2.251739158267548e-06,1.3809433292399838e-05,2.4623000831300033e-05
15333322,-0.3787935376167297,0.0143618397414684,0.24568218231201122,-0.004199183044195175,0.0001562705934420226,0.0030551752662658638,-2.6316549469023077e-05,2.4770813540109444e-06,1.8214996026355213e-05,3.2101133753032206e-05
15334497,-0.4021315276622772,-0.0813837572932243,0.3121055984497083,-0.004671687589198351,6.064467862248405e-05,0.0034218993444442712,-3.180578238633114e-05,2.5483388513923633e-06,2.2235727756077233e-05,3.889125111063607e-05
15335472,-0.4422250092029571,0.0047872802242636,0.25046867370605597,-0.005102856973171234,6.531227684114106e-05,0.0036661063013076756,-3.67810679351731e-05,2.612018321312476e-06,2.5810181399852217e-05,4.500927751093065e-05
15336443,-0.3333143591880798,-0.0251332204788923,0.35160011291504034,-0.005426505215942859,4.090791975613664e-05,0.00400751001094818,-4.2050204499853614e-05,2.6517399113956847e-06,2.97014736204829e-05,5.155025662657209e-05
15337414,-0.4655629992485046,0.0610378198325634,0.21815532684326122,-0.005878566888213157,0.0001001756428135557,0.004219338833312986,-4.775829294830859e-05,2.7490104605676473e-06,3.379845162762981e-05,5.857257836457265e-05
15338385,-0.5822529196739197,0.1244692802429199,0.33783668518066357,-0.006443934473216533,0.0002210353139294309,0.00454737825462341,-5.401535332180184e-05,2.9636357503931247e-06,3.821395591286914e-05,6.62325294538175e-05
15339355,-0.6648335456848145,0.2644972205162048,0.4126381301879878,-0.007088823012530803,0.0004775976178301496,0.004947637240905758,-6.089151164395672e-05,3.42690543968837e-06,4.301316403654772e-05,7.463010218144985e-05
15340534,-0.3763999044895172,0.024534810334444,0.36237186431884716,-0.007532598499923944,0.0005065241592144591,0.005374873668937679,-6.977244527536704e-05,4.024097423402217e-06,4.935014009222525e-05,8.555596885606157e-05
15341670,-0.1938848495483398,-0.0897615030407905,0.2815861129760737,-0.007752851689010858,0.00040455509176012106,0.005694755493278499,-7.857968479408337e-05,4.4836720076417144e-06,5.581938233258962e-05,9.649183188747856e-05
15342856,-0.1071153879165649,-0.1855071038007736,0.2750038528442378,-0.007879890539079904,0.00018454366665240357,0.006020910062751765,-8.792523497343213e-05,4.702540796291465e-06,6.296018166701321e-05,0.00010824483964890588
15343957,-0.010172969661653,-0.1555866003036499,0.26363414764404425,-0.007891090978677384,1.3242819718085029e-05,0.006311171259307857,-9.661332614095594e-05,4.717121140801077e-06,6.990878122351117e-05,0.00011934665354350099
15345091,-0.227994218468666,-0.0640298724174499,0.21635955810546825,-0.008149636422420852,-5.936705560330316e-05,0.006556522998199458,-0.00010585501384398119,4.649798899746932e-06,7.734387830346935e-05,0.0001311830023163802
15346359,-0.2453480958938598,0.0700139701366424,0.41981929779052685,-0.008460737808014266,2.941065852995941e-05,0.007088853867797847,-0.00011658322938454328,4.68709161476292e-06,8.633254500783702e-05,0.00014514450223506372
15347559,-0.4595788717269897,0.1274613291025161,0.294751586914062,-0.009012232454086654,0.0001823642534529787,0.007442555772094721,-0.00012739790832944726,4.905928718906494e-06,9.526361193435068e-05,0.00015915228852294837
15348619,-0.093950368463993,-0.0730060189962387,0.40785068511962663,-0.009111819844658486,0.0001049778733169657,0.007874877498321525,-0.00013705643736478527,5.017205264622477e-06,0.00010361098208257151,0.00017188622684761456
15349584,-0.2172228395938873,-0.1765309572219848,0.2779955291748042,-0.009321439884866587,-6.537450040224965e-05,0.008143143183975212,-0.00014605162685368153,4.9541188717343065e-06,0.0001114691152551076,0.00018379604091535478
15350547,-0.3524634838104248,0.0239364001899957,0.38989871978759716,-0.009660862219776026,-4.2323747019283794e-05,0.008518615651130669,-0.00015535503717132584,4.913361103354736e-06,0.00011967254212714643,0.00019616535379880318
15351515,-0.5266007781028748,0.1585786491632461,0.39827674865722784,-0.010170611772979609,0.00011118038537073844,0.008904147543830865,-0.0001652001893675701,5.020983716393611e-06,0.0001282917569495747,0.00020922496922157752
15352687,-0.5732767581939697,0.2303878515958786,0.34262413024902294,-0.010842492133582942,0.00038119494744110816,0.00930570302448272,-0.0001779075901481293,5.46774419479459e-06,0.00013919804089426846,0.00022595818517525957
15353821,-0.6732112765312195,0.2178212404251098,0.4018663787841792,-0.011605913721169345,0.0006282042340831827,0.009761419498023978,-0.00019106869630793535,6.180127796244919e-06,0.00015026749060502765,0.00024315788990103535
15354793,-0.6648335456848145,0.1286581456661224,0.35997814178466747,-0.012252131927574985,0.0007532599516706537,0.010111318251838674,-0.00020297776854153824,6.912296469268794e-06,0.00016009569194581485,0.00025860855543502535
15355756,-0.4194854199886322,-0.1729404926300048,0.3306555175781227,-0.012656096387024038,0.0005867182572679591,0.010429739515266406,-0.00021516558936224238,7.477306151017838e-06,0.0001701395310990164,0.00027440772765261243
15356721,-0.3369048237800598,-0.0759980678558349,0.3384355926513667,-0.012981209541971796,0.0005133801217870784,0.010756329862174976,-0.00022769245657024517,7.972717968542369e-06,0.00018051938941601525,0.0002906796672729791
15357689,-0.3309207260608673,-0.0005984100280329,0.3821195983886714,-0.013301540804798716,0.0005128008608799425,0.01112622163341521,-0.00024056834806929033,8.469109201874153e-06,0.00019128957195716116,0.0003074679759633748
15358658,-0.2333799004554748,0.111304260790348,0.38152069091796825,-0.01352768592834007,0.0006206546895857897,0.01149591518291472,-0.00025367667573385184,9.070523596082782e-06,0.00020242911376940553,0.00032467164383597136
15359711,-0.2321830838918686,0.0867694541811943,0.4928249740600599,-0.01377217471567821,0.0007120229248385873,0.012014859880599964,-0.000268178775709461,9.820283735937815e-06,0.00021508076122367728,0.00034391281971196745
15360869,-0.0718092024326324,0.0209443494677543,0.31569618225097607,-0.013855329772095198,0.0007362764815222468,0.012380436059646595,-0.00028422324758554723,1.0672891901540577e-05,0.00022941730618074803,0.0003654162906396598
15361861,0.0335109606385231,-0.2106403261423111,0.20977729797363232,-0.013822086899141783,0.0005273212779890741,0.012588535139236438,-0.0002979347577894959,1.1195994609305739e-05,0.00024190513303887058,0.00038393822886622123
15362827,0.0598409995436668,-0.2656940519809723,0.4216141128540034,-0.0137642804935826,0.0002706608237754549,0.012995814372253405,-0.00031123105274629667,1.1457452965072828e-05,0.00025445908972246737,0.0004021759189265335
15363789,-0.0454791598021984,-0.1717436760663986,0.2420915985107417,-0.013808031445312315,0.00010544340739957947,0.013228706490020739,-0.00032451437899668715,1.1558889522991224e-05,0.0002671851053658673,0.00042051286619077406
15364753,0.0299204997718334,-0.2076482772827148,0.39289039611816357,-0.013779188083532267,-9.47295319009576e-05,0.013607452831878648,-0.00033779751630921227,1.14675702542387e-05,0.0002803026898957983,0.00043909937958852606
15365716,0.1274613291025161,-0.2579147219657898,0.4437555694580073,-0.013656442823606544,-0.00034310140915401314,0.01403478944526671,-0.0003509486707483454,1.1137163597223386e-05,0.00029381819213159015,0.0004578407320679298
15366918,0.0526600815355777,-0.3566523492336273,0.3079161071777339,-0.01359314540560078,-0.0007717975329328331,0.014404904606094346,-0.00036728763152587754,1.020946296263812e-05,0.00031113288746811553,0.000481464548092714
15367963,0.0233379900455474,-0.2585131227970123,0.3964809799194331,-0.013568757206003182,-0.001041943746255711,0.014819227230110154,-0.00038146698280615087,9.120631747800903e-06,0.00032661897992358063,0.0005022750271923018
15368931,-0.0580457709729671,-0.2752686142921448,0.336041870117187,-0.013624945512305014,-0.001308403764890507,0.01514451576038359,-0.00039465593006206214,7.854096903386892e-06,0.00034127887117963194,0.0005218105574679022
15370130,-0.2495369762182235,-0.0748012512922287,0.21815532684326122,-0.013924140346790664,-0.001398090465189889,0.015406083997268661,-0.00041135097433786413,6.177786435624215e-06,0.00035975076589235707,0.0005465056291513307
15371318,-0.1597754657268524,-0.0568489506840705,0.3665604019165034,-0.014113953600074164,-0.0014656270186025647,0.015841557754745467,-0.0004281183512147522,4.436621537524368e-06,0.0003785705365049947,0.0005715073554795115
15372510,-0.1280597448348999,-0.2411592304706573,0.3109087371826149,-0.014266600815917366,-0.0017530888213235882,0.016212160969467145,-0.0004451241393873257,2.346939662506651e-06,0.00039789543238059953,0.0005970442049801933
15373705,0.1071153879165649,-0.4972787201404571,0.253461303710937,-0.01413859792735707,-0.0023473368918914346,0.016515047227401713,-0.0004620197639105174,-4.5812792330361353e-07,0.0004176309138173446,0.0006227985647872309
15374756,0.0143618397414684,-0.2926225066184997,0.1349758529663081,-0.014123503633788788,-0.0026548831463474778,0.016656906848869304,-0.00047686356622962943,-3.248410110114813e-06,0.00043513732291550623,0.0006455647936183922
15375722,-0.0885646790266037,-0.1986721158027649,0.3821195983886714,-0.014209057113728487,-0.0028468004102129487,0.017026034380912762,-0.0004905895154014912,-5.9984193063805215e-06,0.00045158447212746797,0.0006668152586156746
15376689,-0.0239364001899957,-0.1406263560056686,0.29355472564697216,-0.014232203612712213,-0.00298278609647043,0.017309901800613384,-0.0005043520562949839,-8.882773461667427e-06,0.00046832314716866114,0.0006883142236851636
15377655,-0.0275268610566854,-0.1777277737855911,0.35997814178466747,-0.014258794560492971,-0.003154471125947311,0.01765764068557737,-0.0005181260518404201,-1.1929992569332529e-05,0.0004853804280709289,0.0007100641451818027
15378620,0.0095745604485273,-0.2136323750019073,0.369553031921388,-0.014249555109660143,-0.0033606263678241516,0.01801425936138151,-0.0005318768725212421,-1.5172997014282836e-05,0.0005027641883546621,0.0007320485342197574
15379867,-0.024534810334444,-0.3315191566944122,0.369553031921388,-0.014280150018147194,-0.0037740307562220835,0.01847509199218748,-0.0005496842195938717,-1.9879213367291775e-05,0.0005258026280689199,0.0007609312242764185
15381106,0.095745600759983,-0.2710797190666199,0.308515014648437,-0.014161521218805574,-0.004109898528145625,0.018857342095336894,-0.0005672303443839718,-2.4971377643664206e-05,0.0005491668749250424,0.0007899101783154327
15382194,-0.0466759800910949,-0.3123700320720672,0.3797258758544917,-0.014212304685144686,-0.004449757123040034,0.01927048384826658,-0.0005826933318814092,-2.9812713393531764e-05,0.0005701331613519564,0.0008157647568828399
15383174,0.010172969661653,-0.1567834168672561,0.27380699157714794,-0.014202335174876266,-0.004603404871569945,0.019538814700012185,-0.000596611620352788,-3.432405016767031e-05,0.0005892811997579684,0.0008392710517753384
15384130,-0.0161570701748132,-0.3225429952144623,0.32108158111572394,-0.014217781333963387,-0.0049117559749949705,0.019845768691558817,-0.000610203819308057,-3.90196888797655e-05,0.0006082537546270987,0.0008624638353208652
15385096,0.0759980678558349,-0.3769983053207397,0.15651840209960888,-0.01414436720041465,-0.005275936337934805,0.01999696546798704,-0.0006238672780236575,-4.4116243382210526e-05,0.0006275708232691741,0.0008860032515389292
15386062,0.2196164727210998,-0.5690879225730896,0.22354072570800732,-0.013932217687766068,-0.005825675271140409,0.020212905809020975,-0.0006373258003100396,-4.974384569413216e-05,0.0006470964902806883,0.0009096111771844381
15387380,0.2585131227970123,-0.5744736194610596,0.29594844818115185,-0.013591497391919605,-0.006582831501590086,0.020602965863723732,-0.0006552393938725897,-5.842001761322789e-05,0.0006742511992890762,0.0009420011897461733
15388550,0.1035249307751655,-0.4637677669525146,0.3743395233154292,-0.013470373222912661,-0.007125439788924528,0.021040943106002786,-0.0006709997305433975,-6.675678216626959e-05,0.0006988691027230994,0.0009711411478747551
15389588,0.1974752992391586,-0.4643661677837372,0.27739757537841747,-0.013265393862302414,-0.007607451871084047,0.021328881789245583,-0.0006847692093724674,-7.465331720845483e-05,0.0007210084820203364,0.0009971635868903806
15390555,0.4434218108654022,-0.4607757031917572,0.391095581054687,-0.01283660497119557,-0.008053021976070477,0.021707071216125466,-0.0006971822063796135,-8.244058945931498e-05,0.0007419992198863298,0.0010214804560023003
15391522,0.1202804148197174,-0.5421594381332397,0.2941526794433589,-0.012720293810064903,-0.00857729015274532,0.021991516857147193,-0.0007094827304939463,-9.07348290370197e-05,0.0007632650166871911,0.0010460267873090158
15392493,0.1011312901973724,-0.3871712684631347,0.363568725585937,-0.012622095327283254,-0.008953233454423023,0.02234454208969114,-0.0007217387850567382,-9.942841872126446e-05,0.0007849615670562812,0.0010709610385350348
15393672,0.1029265224933624,-0.4535947740077972,0.27141326904296825,-0.01250074495726358,-0.009488021692978216,0.022664538333892797,-0.000736477163361352,-0.00011061479629728577,0.0008116830577519408,0.00110157325292248
15394737,-0.0574473589658737,-0.2806542813777923,0.288767280578611,-0.012561926394562236,-0.009786918502645564,0.022972075487709017,-0.0007498556149715608,-0.00012103786450260329,0.0008361483181463509,0.001129636055500487
15395696,-0.1125010848045349,-0.3530619144439697,0.3162941360473628,-0.012669814934889785,-0.01012550487859733,0.023275401564178438,-0.00076200596749412,-0.00013074822368117813,0.000858469428246398,0.0011552999401567244
15396659,-0.2327814996242523,-0.2202148884534835,0.2642321014404292,-0.01289398351902794,-0.010337571816178035,0.02352985707786557,-0.0007744228736229439,-0.0001407033053401576,0.0008811286806123825,0.001181488873888274
15397616,-0.4176901876926422,-0.1902943849563598,0.29774326324462663,-0.013293713028649798,-0.010519683542581272,0.023814797380790675,-0.0007871449569913617,-0.00015077064249040788,0.0009039194417057992,0.00120805601155229
15398575,-0.1747357249259948,-0.1555866003036499,0.40066951751708935,-0.013461284588853827,-0.010668891092272472,0.024199039448089564,-0.0008000543289120725,-0.00016100210904789716,0.000927126320536517,0.0012351404060107491
15399796,-0.1376343071460724,-0.1298549771308899,0.3109087371826149,-0.013629336077879181,-0.01082744401934929,0.02457865901618954,-0.000816695748263163,-0.00017422241819552264,0.0009571368631952845,0.0012702190248615913
15401019,-0.1597754657268524,-0.1711452603340149,0.20319503784179638,-0.013824741472463122,-0.01103675467273779,0.024827166547470057,-0.0008336034070839854,-0.00018772036916028096,0.0009875004878828403,0.0013058678305512194
15402231,-0.2184196561574936,-0.0688171535730362,0.2893652343749995,-0.014089466095726004,-0.01112016106286831,0.025177877211532557,-0.0008506798399920053,-0.00020119800436847735,0.0010180160750632179,0.001341824711435067
15403401,-0.3512666821479797,-0.0951471924781799,0.34082931518554815,-0.01450044811383914,-0.01123148327806778,0.025576647510299647,-0.0008676453642851972,-0.00021433883980381666,0.0010479407526502685,0.0013772906147502967
15404586,-0.4123044908046722,-0.0843758136034011,0.33245128631591747,-0.014989028935442676,-0.01133146861718781,0.025970602284584008,-0.0008854073635736967,-0.00022776663011518422,0.0010787159163575006,0.0014140197542706233
15405785,-0.243552878499031,-0.1579802483320236,0.14814132690429638,-0.015281048836763015,-0.011520886934937906,0.02614822373554226,-0.0009037293411289756,-0.00024158017355017477,0.0011100676366164158,0.0014516672690851372
15406839,-0.2746701836585998,-0.1938848495483398,0.25465816497802685,-0.015570551210339179,-0.011725241566361856,0.0264166334414291,-0.0009201407021046731,-0.00025393857816112016,0.001137910768263682,0.0014852557455464078
15407808,-0.3740062415599823,-0.0526600815355777,0.16190475463867138,-0.0159329632584108,-0.011776269185369831,0.026573519148673973,-0.0009355797435020731,-0.00026534978300174353,0.001163660508318747,0.0015165176366963632
15408771,-0.2638988196849823,-0.1819166392087936,0.22114700317382763,-0.01618709782176744,-0.0119514549089279,0.026786483712730368,-0.0009511679187044352,-0.0002768590340790411,0.0011894558921341065,0.0015479588669135398
15409922,-0.0394950620830059,-0.2746701836585998,0.36057609558105597,-0.01623255663822498,-0.012267600290318948,0.02720150679874416,-0.0009698515913950321,-0.00029097904201319817,0.001220764826459461,0.0015860478157177333
15411113,0.0748012512922287,-0.3632348775863647,0.33245128631591747,-0.016143468347935935,-0.012700213029524308,0.02759745628074642,-0.0009890784621974238,-0.00030610499573136164,0.0012536333968898301,0.001625906875129093
15412166,-0.0382982417941093,-0.2986066043376922,0.30492443084716747,-0.01618379639654513,-0.013014645783891898,0.027918541706428487,-0.0010061199998029858,-0.0003198094177417998,0.0012830316213066992,0.0016615431559104344
15413138,-0.0736044272780418,-0.3363064229488373,0.26363414764404425,-0.016255339899859386,-0.013341535626998167,0.028174794097938497,-0.001021920190185649,-0.00033277739037124203,0.0013104175211698956,0.001694773066354437
15414109,0.0011968200560659,-0.243552878499031,0.33245128631591747,-0.016254177787584947,-0.013578025472020725,0.028497604296951255,-0.001037702996817394,-0.00034596165310457416,0.0013380886949422351,0.0017282934735035206
15415211,-0.1873023360967636,-0.3398968875408172,0.3079161071777339,-0.01646058496196358,-0.013952591842090706,0.028836927847061117,-0.0010558425614454778,-0.0003613374093145581,0.0013698669894296966,0.0017668910002201846
15416212,-0.0047872802242636,-0.3853760361671448,0.31509727478027116,-0.016465377029468067,-0.014338353254294018,0.02915234021911617,-0.0010723244038519752,-0.0003756901009221064,0.0013990484819890318,0.0018023205414085394
15417397,-0.0580457709729671,-0.2471433281898498,0.35160011291504034,-0.016534161268071033,-0.01463121809819899,0.02956898635292049,-0.0010919173849546393,-0.0003930280943684722,0.0014340877308172426,0.0018448203918565186
15418556,-0.2172228395938873,-0.2172228395938873,0.31868785858154425,-0.016785922539160347,-0.014882979369288306,0.0299383455810165,-0.0011113722691775262,-0.00041027746745747736,0.0014687862733456407,0.0018870106088119114
15419743,-0.2100419104099273,-0.0059841000474989,0.24987071990966747,-0.01703524228681693,-0.014890082496044687,0.030234942125549277,-0.001131593101771978,-0.0004279519953802824,0.0015046751496486678,0.0019307234820911388
15420950,-0.5032628178596497,-0.0185507107526063,0.34860843658447216,-0.01764268050797353,-0.014912473203923082,0.030655712508506735,-0.001152887817145102,-0.00044595135053741755,0.0015416765946464355,0.0019760540601027024
15422146,-0.6361098289489746,0.0472743920981884,0.3641666793823237,-0.018403467863396503,-0.014855933030973649,0.031091255857047993,-0.0011748983647097242,-0.00046371904644246204,0.0015788617366514649,0.00202193617725515
15423322,-0.6558573842048645,0.1825150549411773,0.2666258239746089,-0.019174756147221424,-0.014641295326362824,0.03140480782604213,-0.0011974478779388565,-0.0004809372097462647,0.0016157937906548904,0.0020678422555934226
15424538,-0.5260024070739746,0.1065169796347618,0.3115066909790034,-0.019814375074223376,-0.014511770679126955,0.0317835999622726,-0.001221542158029112,-0.0004985835228920831,0.001654442648209014,0.0021161122960170983
15425606,-0.4123044908046722,-0.0041888700798153,0.31808895111083935,-0.020254716270402765,-0.014516244392372197,0.03212331896205897,-0.0012431741950059022,-0.0005140868719031366,0.001688750352860493,0.002159084330284059
15426574,-0.4709486663341522,0.1011312901973724,0.3001369857788081,-0.020710594579414224,-0.01441834930346114,0.032413851564292856,-0.001263222050558775,-0.0005280438340288869,0.0017201269611747283,0.0021984988065118544
15427540,-0.2902288436889648,-0.062833048403263,0.35100215911865185,-0.020990955642417763,-0.014479046028218692,0.032752919650001475,-0.0012834993137093506,-0.0005420305924921462,0.0017517662815566297,0.0022382700365881913
15428522,-0.1460120379924774,-0.0568489506840705,0.3312544250488276,-0.021134339463726375,-0.01453487169779045,0.033078211495399426,-0.00130425323506273,-0.0005563038364993763,0.0017842490852451119,0.0022790557820890523
15429747,-0.2525290250778198,-0.0897615030407905,0.24568218231201122,-0.021443687519446704,-0.014644829539015419,0.03337917216873164,-0.0013305217522740522,-0.0005742437526846702,0.0018251385711518082,0.0023304881086754874
15430931,-0.2232069373130798,0.0586441792547702,0.336041870117187,-0.02170796453322539,-0.014575394830777771,0.03377704574295039,-0.001356223982281391,-0.0005915010201643111,0.0018651305933114614,0.0023807412873046454
15431978,-0.2770638465881347,-0.1555866003036499,0.3611750030517573,-0.02199805038060317,-0.014738294001295693,0.03415519597114558,-0.0013792559410298825,-0.0006069320139836677,0.0019008910834932508,0.0024257164574139007
15432955,-0.4494059085845947,-0.0706123784184455,0.2540592575073237,-0.022437119953290317,-0.014807282295010514,0.03440341186573023,-0.0014011770072242472,-0.000621398728785893,0.0019345032168860692,0.0024681442587201363
15433926,-0.4667598009109497,0.0658250972628593,0.343820991516111,-0.022890343719974848,-0.014743366125568277,0.034737262048492375,-0.0014234035309763427,-0.0006357145372938198,0.0019682330983351553,0.0025108070643330245
15434897,-0.5852450132369995,0.0269284509122371,0.2702164077758802,-0.023458616627827975,-0.014717218599732495,0.034999642180442755,-0.0014461818477219637,-0.00065000495655416,0.0020022177508923654,0.0025539820481385476
15435910,-0.6606446504592896,0.1699484437704086,0.2785944366455073,-0.024127849658743237,-0.01454506082619307,0.035281858344764654,-0.0014706233594262705,-0.0006647391031710937,0.002037958273395612,0.0025995932498520885
15436889,-0.7557918429374695,0.2327814996242523,0.28457874298095476,-0.02486776987297902,-0.014317167738060927,0.03556046093414301,-0.001494968906131917,-0.0006787556103866554,0.002072771964650138,0.0026442437153886204
15437860,-0.6283305287361145,0.1801214069128036,0.3318523788452161,-0.025477878816381788,-0.014142269851948594,0.03588268959400171,-0.0015197079264626238,-0.0006924877544128975,0.002107614056245914,0.0026890683297102176
15438825,-0.5643006563186646,0.2848431766033172,0.3551906967163081,-0.0260224289497293,-0.013867396186526392,0.03622544861633295,-0.0015448195703991125,-0.0007058697917328954,0.0021425716141606752,0.002734105482562116
15439789,-0.6989428997039795,0.1645627468824386,0.3384355926513667,-0.026696209905043934,-0.01370875769853172,0.03655170052764887,-0.0015705547167475748,-0.00071908503415428,0.002177807453469329,0.0027796709713614094
15440756,-0.4918930232524872,0.2082466781139373,0.288767280578611,-0.02717187045852909,-0.013507383160795543,0.03683093848796839,-0.0015968299154809724,-0.0007321466736707694,0.0022134229709871943,0.0028258000246365487
15441724,-0.6265352964401245,0.2052546292543411,0.31749099731445085,-0.02777835662548313,-0.01330869667967734,0.03713826977336878,-0.00162371936469444,-0.0007450294920566971,0.0022493728161278154,0.0028724922254468772
15442839,-0.5152310132980347,0.1609722971916198,0.2833818817138667,-0.02835283920531044,-0.013129212568308684,0.03745424057147974,-0.0016553327804083612,-0.0007596685640703613,0.0022911342943650152,0.0029268616803577643
15443962,-0.4140997231006622,0.0885646790266037,0.26542896270751903,-0.028817873194352483,-0.013029754433761809,0.03775231729660028,-0.001687695252005619,-0.0007743009782994758,0.0023335301466890974,0.002982150266861929
15445169,-0.2806542813777923,-0.062833048403263,0.24628013610839794,-0.029156622911975478,-0.013105593923184547,0.038049577420883114,-0.0017228872958603733,-0.0007901194301647595,0.0023794559866361035,0.0030421111321743896
15446375,0.0065825101919472,-0.1531929671764373,0.2720121765136714,-0.02914868440468399,-0.01329034464159933,0.0383776241057586,-0.0017580406092524222,-0.0008061475858025283,0.0024257394013076482,0.003102384946606765
15447411,-0.0993360579013824,-0.0616362318396568,0.143353881835937,-0.02925159656066982,-0.013354199777785215,0.038526138727340634,-0.001788345263289276,-0.0008199825367723138,0.002465652481029173,0.0031543608383547473
15448370,-0.008976150304079,-0.1645627468824386,0.2612404251098628,-0.029260204688811433,-0.013512015452045474,0.038776668295020994,-0.0018164057995858462,-0.0008329405595908254,0.0025028393059240983,0.0032027058241210975
15449341,0.0035904599353671,-0.0963440090417862,0.3192858123779292,-0.029256718352214193,-0.013605565484825048,0.039086694818839966,-0.0018448140731058462,-0.0008461515636765905,0.002540792486593192,0.003251912959008918
15450313,0.0005984100280329,-0.3039922714233398,0.44794410705566357,-0.029256136697666944,-0.013901045972648534,0.03952209649089807,-0.0018732510379759785,-0.0008596633803620049,0.002579207964382345,0.003301576033100984
15451280,-0.0466759800910949,-0.2196164727210998,0.3330492401123042,-0.02930127237041503,-0.014113415101769836,0.03984415510608667,-0.0019015853683581698,-0.0008733110527654164,0.0026177372623699307,0.0033513053401378
15452457,-0.1346422582864761,-0.3542587161064148,0.20259613037109325,-0.029459746308418213,-0.014530377610627086,0.04008261075153345,-0.001936259489763178,-0.0008904133072131245,0.0026649144952244855,0.0034122874931954007
15453576,-0.1944832503795623,-0.3363064229488373,0.1792578124999995,-0.029677373065592944,-0.014906704497906835,0.04028320024372095,-0.0019694684702235765,-0.0009070939095462822,0.002709991396297209,0.00347068851727516
15454548,-0.2375687658786773,-0.1693500280380249,0.3270658874511714,-0.02990828990602702,-0.015071312725159795,0.04060110828632349,-0.0019985393280122347,-0.0009217432255151375,0.0027494556735515154,0.0035218285762114066
15455513,-0.3823840022087097,-0.1567834168672561,0.2570518875122083,-0.030277290468158424,-0.015222608722436698,0.04084916335777277,-0.0020277569133140077,-0.000936433042932289,0.002788875116191766,0.0035730280375476787
15456472,-0.4631693363189697,0.0323141403496265,0.41981929779052685,-0.030721469861688316,-0.015191619461841405,0.04125177006435388,-0.0020572188029113667,-0.0009510018059961948,0.002828435563683481,0.0036244449748850643
15457437,-0.5415610671043396,0.1208788231015205,0.36775726318359325,-0.031244076291444003,-0.015074971397548438,0.04160665582332605,-0.0020873693365326103,-0.0009655491533948291,0.0028685859865529907,0.003676707967321617
15458402,-0.5487419962882996,-0.0496680289506912,0.22713130950927507,-0.031773612317862215,-0.015122901045485856,0.0418258375370025,-0.002118030872419347,-0.000980142752903723,0.002908947919776198,0.00372943864308845
15459364,-0.4751375317573547,0.0179523006081581,0.2145647430419917,-0.03223069462341279,-0.015105630932300808,0.042032248819808896,-0.0021490368006470703,-0.0009946743698605962,0.0029493829431408544,0.0037824061148802064
15460335,-0.3159604966640472,-0.1160915419459343,0.3007358932495112,-0.03253749226567358,-0.01521835581953031,0.04232426337215417,-0.0021806307056370395,-0.0010094513933613602,0.0029904798028752163,0.0038362888109904963
15461304,-0.0724076107144355,-0.2166244238615036,0.41682666778564403,-0.03260765524045587,-0.015428264886252107,0.04272816841323846,-0.0022122275235650414,-0.0010244013820361385,0.0030318833980676444,0.003890458295241638
15462269,-0.2142307758331298,-0.0981392413377761,0.3940872573852534,-0.03281438793913484,-0.01552296925414306,0.04310846261661523,-0.0022438934079263063,-0.0010393810473663864,0.0030734830644926782,0.003944828099611298
15463234,-0.1424215883016586,-0.1717436760663986,0.32347530364990185,-0.03295182477184594,-0.015688701901547135,0.043420616284637385,-0.0022756919188311377,-0.0010545206447013795,0.0031153839592073535,0.003999550563853549
15464188,0.0406918786466121,-0.1861055195331573,0.40904754638672003,-0.03291300471961707,-0.015866246567181767,0.043810847643890316,-0.0023070909253336525,-0.0010696570439264709,0.003157179507859625,0.004053963144162407
15465160,0.3249366283416748,-0.4775311946868896,0.369553031921388,-0.032597166316868965,-0.016330406888417425,0.04417005319091791,-0.002338775370993649,-0.0010855301994220127,0.0032001127995611974,0.0041096189579739725
15466128,0.0921551436185836,-0.2256005704402923,0.38092273712158153,-0.032507960137846174,-0.01654878824060363,0.0445387864004516,-0.002370243076407084,-0.001101549426438917,0.0032432263447968344,0.004165330779629376
15467254,0.1466104537248611,-0.3321175575256347,0.40306324005126903,-0.03234287676695198,-0.016922752610377494,0.044992635608749325,-0.002406661155646672,-0.001120604445878202,0.003293888052492286,0.004230540242637103
15468369,-0.0347077809274196,-0.3799903690814972,0.4132360839843763,-0.03238157594268606,-0.017346441871903363,0.0454533938423919,-0.002442766612822767,-0.0011399457285653743,0.003344568586626553,0.004295663396897526
15469389,-0.2477417439222335,-0.2644972205162048,0.39767784118652294,-0.032634272521486735,-0.01761622903682989,0.045859025240402154,-0.0024760535707946834,-0.0011579142821829408,0.003391344792371763,0.004355780787766461
15470345,-0.4206822216510772,-0.1178867742419242,0.3420261764526362,-0.03303644472538517,-0.01772892879300517,0.04618600226509088,-0.002507636411952152,-0.0011748631381090537,0.0034354986105371898,0.004412617643852533
15471319,-0.3871712684631347,-0.0155586600303649,0.17147869110107372,-0.03341354954086826,-0.017744082927874744,0.04635302251022332,-0.0025401812092049575,-0.0011921458748808036,0.003480646454462147,0.004470864804884307
15472294,-0.4368393123149872,-0.0616362318396568,0.2642321014404292,-0.033839467870375374,-0.017804178253918407,0.04661064880912774,-0.0025731746903785734,-0.001209504948678374,0.003526091837051047,0.004529619614426841
15473261,-0.3620380461215973,-0.0281252712011337,0.35100215911865185,-0.03418955866097496,-0.017831375391169905,0.046950067896995476,-0.0026062359936037363,-0.0012267478886816353,0.0035714925527074413,0.004588347795316438
15474229,-0.4254695177078247,0.0448807515203952,0.3091129684448237,-0.034601413154116134,-0.017787930823698162,0.04724928925045006,-0.002639730161536921,-0.0012439666057189752,0.003617229864701877,0.004647577878418272
15475340,-0.3195509314537048,-0.1986721158027649,0.4437555694580073,-0.0349564342389612,-0.018008655544355035,0.04774230168811791,-0.0026785667599764067,-0.0012639742220287536,0.003670271561877376,0.0047162743834015305
15476385,-0.5517340302467346,0.1663579791784286,0.2839798355102534,-0.03553299630056904,-0.017834811456113576,0.04803906061622613,-0.0027156987411105014,-0.0012826116000003924,0.003720472380221332,0.004781425195578669
15477355,-0.6462827920913696,0.3303223252296448,0.3192858123779292,-0.03615989060889767,-0.01751439880064082,0.04834876785423272,-0.0027507738350011322,-0.0012996005668370139,0.003767370685039938,0.00484239612208132
15478722,-0.4129028916358948,0.1908927857875824,0.3025307083129878,-0.03672432886176394,-0.017253448362469195,0.04876232733249657,-0.0028009759925551637,-0.0013231860307485093,0.0038340287865034606,0.004929103825095956
15479873,-0.4619725346565246,0.1107058525085449,0.20618671417236278,-0.0372560592491536,-0.017126025926231858,0.04899964824050896,-0.0028438577167509394,-0.0013428980865896022,0.0038904273816282864,0.00500263202682478
15480906,-0.2321830838918686,-0.1729404926300048,0.2839798355102534,-0.0374959043748139,-0.017304673455118654,0.04929299941059105,-0.0028825909859701224,-0.0013607738142687397,0.0039413470500194265,0.0050690485038804405
15481878,0.0376998297870159,-0.3387000560760498,0.26004356384277116,-0.03745926014026092,-0.017633889909624573,0.04954576175464623,-0.002919001386826456,-0.0013779139552608948,0.003989505530444942,0.00513179991249155
15482873,-0.0059841000474989,-0.3225429952144623,0.11702388763427507,-0.037465214319808184,-0.017954820189862962,0.04966220052284233,-0.002956279275074665,-0.0013957790013498085,0.0040389194199651705,0.005196215570375891
15484194,0.2381671816110611,-0.4410281777381897,0.36775726318359325,-0.03715059547289997,-0.01853741841265511,0.05014800786750786,-0.003005355211694366,-0.001420266931072926,0.004105164938358149,0.0052822057206325145
15485261,0.5260024070739746,-0.6187559366226196,0.40306324005126903,-0.03658935090455204,-0.019197630997031447,0.050578076344642564,-0.003044396049109523,-0.0014407508033467584,0.004159131745817882,0.005351867623572925
15486236,0.2561194896697998,-0.4733423292636871,0.2863735580444331,-0.03633963440212398,-0.019659139768063542,0.050857290563735884,-0.0030798271926515937,-0.0014599184646206203,0.004208717604117525,0.005415717988516868
15487357,0.1089106202125549,-0.3985410630702972,0.34860843658447216,-0.036217545596865706,-0.020105904299765345,0.05124808062114708,-0.0031204270612656803,-0.0014824571833406573,0.0042661667024938305,0.005489528456851697
15488361,-0.0442823395133018,-0.2633003890514374,0.32048267364501903,-0.03626200506573706,-0.02037025789037299,0.05156984522548668,-0.0031568341143516803,-0.0015029089222625917,0.004317942827100219,0.005555984801298262
15489589,0.0382982417941093,-0.5816545486450195,0.19302124023437628,-0.036214974824813895,-0.021084529676109073,0.051806875308494496,-0.003201306103436552,-0.0015288007247048535,0.0043815616699790505,0.005637701224044053
15490785,-0.0700139701366424,-0.4045251607894897,0.14215702056884716,-0.03629871153309732,-0.021568341768413303,0.05197689510509484,-0.0032447193624301363,-0.0015545964614598758,0.004443726036524744,0.005717663420191897
15491961,-0.1555866003036499,-0.2615051865577698,0.3354429626464839,-0.03648168137505441,-0.02187587186780524,0.052371376029167103,-0.0032876218197272003,-0.0015803224867764149,0.004505314774735044,0.0057968730891061835
15493144,-0.0652266889810562,-0.3249366283416748,0.2678226852416987,-0.036558844548119,-0.02226027189913344,0.052688210265808035,-0.003330870932827625,-0.0016066563884330897,0.004567644927479495,0.005877025276887789
15494342,-0.0652266889810562,-0.1478072702884674,0.3025307083129878,-0.036636986121518306,-0.022437345008939024,0.05305064205436699,-0.0033747620422012042,-0.0016335363277537986,0.004631199596660627,0.005958646614767733
15495534,-0.4667598009109497,0.0981392413377761,0.35339588165283153,-0.037193363804204155,-0.022320363033264394,0.05347188994529717,-0.0034190965318558154,-0.0016601422004894498,0.004694938089475421,0.006040590772763996
15496744,-0.3285270929336548,0.0029920500237494,0.36476558685302685,-0.03759088158665388,-0.022316742652735658,0.05391325630538933,-0.0034645814985756664,-0.0016871454590992598,0.004760173129604943,0.006124461852623868
15497808,-0.1496025025844574,-0.1472088545560836,0.35339588165283153,-0.03775005864940374,-0.022473372873983332,0.054289269523467944,-0.003504747560978632,-0.0017110571278371781,0.004817936912377913,0.006198668248306381
15498770,0.0329125486314296,-0.3530619144439697,0.2911610031127907,-0.03771839677762031,-0.02281301843567843,0.054569366408462446,-0.0035410326586787027,-0.0017330032515723009,0.004870432642862854,0.00626604553833224
15499994,0.1585786491632461,-0.4613741040229797,0.21037525177001903,-0.0375242965110445,-0.02337774033900256,0.054826865716628946,-0.003586962397608221,-0.00176161760574724,0.004937540726500008,0.00635207873507407
15501178,0.111304260790348,-0.4182885885238647,0.2899641418457026,-0.037392512266268725,-0.023872994027814814,0.05517018326057426,-0.0036312351321314833,-0.0017898832306761728,0.005002862223480529,0.006435695843606211
15502398,-0.055652130395174,-0.2106403261423111,0.36237186431884716,-0.03746040786535084,-0.024129975225708433,0.05561227693504325,-0.0036769368297272114,-0.0018193218004515371,0.005070709201341282,0.006522414282148119
15503644,-0.1125010848045349,-0.1861055195331573,0.25465816497802685,-0.03760058421701729,-0.024361862703046747,0.05592958100860587,-0.0037237871576616148,-0.0018496766813795333,0.005140397459278005,0.006611473410712361
15504874,-0.3153620660305023,-0.0759980678558349,0.198407592773437,-0.03798847955823481,-0.024455340326509423,0.0561736223477172,-0.0037705129875182436,-0.00187975674998114,0.0052094910147656975,0.006699929123585409
15505938,-0.3111732006072998,-0.0083777401596307,0.30432552337646435,-0.03831956784368098,-0.02446425424203927,0.05649742470458976,-0.00381128500770392,-0.0019057867164946696,0.005269604274651381,0.006776920069628998
15507176,-0.4140997231006622,0.0676203295588493,0.39767784118652294,-0.0388322233008796,-0.024380540274045414,0.056989749871978676,-0.003859359300150409,-0.0019359698253539378,0.005340157584992891,0.006867307798904569
15508363,-0.4398313462734222,0.1801214069128036,0.34023040771484325,-0.03935430310890615,-0.024166736164039915,0.05739360336593619,-0.0039060728579406808,-0.0019646557411806534,0.005408283792188257,0.006954625146601444
15509541,-0.2848431766033172,0.0789901241660118,0.23191875457763622,-0.03968984837094486,-0.024073685797772353,0.05766680365882865,-0.003952827499321653,-0.0019930145430504293,0.005476215286898357,0.007041724652147601
15510723,-0.5966147780418396,0.0951471924781799,0.32048267364501903,-0.040395047038590315,-0.023961221816263145,0.05804561417907706,-0.004000574444921267,-0.002021336707237252,0.005544825202858026,0.007129900735889062
15511893,-0.4883025586605072,0.2226085215806961,0.2528623962402339,-0.040966361032223106,-0.02370076984601373,0.05834146318267813,-0.004048505087328968,-0.0020490666079570883,0.00561308471478176,0.007217741157820079
15512952,-0.5032628178596497,0.2309862673282623,0.3312544250488276,-0.041499316356336476,-0.023456155388913102,0.05869226161880484,-0.004092452863350328,-0.0020739066765139472,0.005675239819836074,0.007297780919860942
15513921,-0.3853760361671448,0.1119026690721511,0.3857092285156227,-0.04187274573538244,-0.02334772170258219,0.05906601386123648,-0.004133027553967913,-0.0020965306188437493,0.005732474787267613,0.007371473705051535
15514888,-0.3051891028881073,-0.0347077809274196,0.3492063903808589,-0.042167863597875235,-0.023381284126739003,0.05940369644073477,-0.0041738038780670585,-0.002119140320594306,0.0057899181617258036,0.007445437987816329
15515857,-0.5601117610931396,0.0311173200607299,0.31030982971191357,-0.04271061189437449,-0.023351131443600157,0.05970438666572561,-0.004215190460992707,-0.0021417675669631545,0.005847771712404892,0.007520068678791572
15516819,-0.5529308319091797,0.1729404926300048,0.31509727478027116,-0.04324253135467112,-0.023184762689690094,0.060007510244064234,-0.004256789776155901,-0.0021640713086706364,0.005905498937259682,0.007594628465262278
15518066,-0.4308552145957947,-0.0287236794829368,0.2833818817138667,-0.04377980780727207,-0.023220581118005318,0.06036088745056142,-0.00431138319649157,-0.0021930273733247892,0.005980768963910532,0.007692008289570231
15519256,-0.0825805813074112,-0.4308552145957947,0.16848701477050732,-0.04387807869902789,-0.023733298823374313,0.060561386998138324,-0.004363598110143413,-0.0022212699989246046,0.006052837014438317,0.0077853622136882135
15520475,-0.1777277737855911,-0.2621035873889923,0.2510675811767573,-0.044094728855272526,-0.024052803096401495,0.06086743837959279,-0.00441734958461799,-0.002250590365899118,0.006127034421823041,0.00788154078553217
15521677,-0.0394950620830059,-0.2477417439222335,0.363568725585937,-0.0441422019198963,-0.02435058867259602,0.061304447987747084,-0.004470408511325706,-0.0022798597734835784,0.006200722368304313,0.007976921131217942
15522844,0.0777933001518249,-0.3949505984783172,0.31868785858154425,-0.04405141713861912,-0.024811496021020216,0.061676356718711745,-0.004521816515126475,-0.002308814789340109,0.006272698676595049,0.008069956568365374
15524078,0.2411592304706573,-0.6193543672561646,0.2899641418457026,-0.04375382664821833,-0.025575779310214323,0.06203417246974934,-0.004575808737210377,-0.0023403753010089135,0.00634924884542272,0.008168741827858506
15525141,0.0412902906537056,-0.4434218108654022,0.29355472564697216,-0.04370993506925344,-0.026047136695164244,0.06234622114311207,-0.004622272398188993,-0.002368063407315873,0.006415522878497848,0.008254214694848784
15526116,-0.081982173025608,-0.2028609961271286,0.4329838180541987,-0.04378986768795341,-0.026244926166388193,0.06276838036571492,-0.004664967519184748,-0.0023936522103281013,0.006476722049354421,0.008333031943035562
15527090,-0.3985410630702972,-0.0287236794829368,0.31509727478027116,-0.04417804668338388,-0.026272903030204575,0.0630752851113509,-0.004707996936654364,-0.0024192420178795206,0.006538157377052876,0.008412221406009925
15528058,-0.4619725346565246,0.0191491208970546,0.3492063903808589,-0.0446252360969314,-0.026254366681176228,0.06341331689723957,-0.004751194165196194,-0.002444656244826899,0.006599541467809404,0.00849141553194174
15529023,-0.5218135118484497,0.0197475310415029,0.24747699737548778,-0.045128786135865157,-0.02623531031372118,0.06365213219970692,-0.004794743443817304,-0.00246997331927964,0.006660965775382121,0.008570810810582289
15530333,-0.3536603152751922,-0.0269284509122371,0.34561580657958935,-0.04559208114887566,-0.02627058658441621,0.06410488890632618,-0.004854469070122331,-0.002504387787705225,0.006744943179849409,0.008679405892304985
15531563,-0.3470778167247772,-0.0700139701366424,0.3306555175781227,-0.04601898686344714,-0.02635670376768428,0.06451159519294727,-0.00491107242396437,-0.0025368065333394767,0.006824292441936734,0.008782083299200251
15532631,-0.4009346961975097,0.1184851825237274,0.2791923904418958,-0.04644718511898608,-0.02623016159274894,0.06480977266593922,-0.004960678017671447,-0.0025648203459205324,0.006893509279143957,0.008871702203269702
15533600,-0.4164933562278747,-0.1154931336641311,0.4341806793212868,-0.04685076718117089,-0.026342074439269482,0.06523049374420155,-0.005006076411070002,-0.0025903458160521846,0.006956717627582088,0.008953580994782028
15534566,-0.0418886989355087,-0.2884336113929748,0.4850458526611323,-0.04689123166434259,-0.026620701307875097,0.0656990480378722,-0.005051373340857757,-0.002616061413515592,0.007020182907986673,0.00903565813926146
15535539,-0.020345939323306,-0.5158294439315796,0.4437555694580073,-0.04691102826330417,-0.027122603356820523,0.06613082220695485,-0.005097017771357951,-0.002642451706581778,0.00708452819799404,0.009118809186035665
15536506,-0.1430199891328811,-0.4918930232524872,0.26842159271240185,-0.04704932859279567,-0.02759826391030568,0.06639038588710774,-0.005142514472107185,-0.002669139227783044,0.007148727701146873,0.009201851284294196
15537523,-0.2830479443073272,-0.2016641795635223,0.35638755798339794,-0.04733718835215622,-0.02780335638092178,0.06675283203357686,-0.005190656392661328,-0.002697415241222441,0.00721661533132502,0.00928969857479619
15538535,-0.1813182383775711,-0.0933519601821899,0.37374156951904425,-0.047520682409394326,-0.027897828564626158,0.06713105850193013,-0.005238747323259635,-0.002725647843729843,0.007284551962528973,0.00937754376048301
15539506,-0.1801214069128036,-0.0029920500237494,0.34561580657958935,-0.047695580295506655,-0.02790073384519922,0.06746665145011892,-0.0052850597317265725,-0.0027527394562935313,0.007350062081087039,0.00946217963674261
15540471,-0.2285926192998886,-0.1561850160360336,0.280988159179687,-0.04791617217313105,-0.028051452385673994,0.06773780502372731,-0.005331298837873644,-0.0027798091078457066,0.007415429062934936,0.009546657748248595
15541439,-0.3255350291728973,-0.064628280699253,0.3115066909790034,-0.04823129008137041,-0.028114012561390872,0.06803934350059498,-0.00537798672667241,-0.002807023472005133,0.007481291147443512,0.009631813912107576
15542408,-0.4051235616207123,0.1005328819155693,0.34860843658447216,-0.048623854812580886,-0.028016596198814685,0.06837714507564534,-0.005425103241985801,-0.0028341715537217845,0.0075475486010218125,0.009717497798657684
15543361,-0.7174935936927795,0.1346422582864761,0.35100215911865185,-0.04930762620737011,-0.027888282126667673,0.06871165013328541,-0.005472093409761424,-0.0028607490865884986,0.007613030803598833,0.009802343068782894
15544526,-0.7282649874687195,0.3357080221176147,0.27380699157714794,-0.05015605491777116,-0.027497182280900652,0.0690306352784728,-0.005530525213740628,-0.002892783303945748,0.007693451493698254,0.009906770425789425
15545940,-0.6379050612449646,0.2579147219657898,0.44794410705566357,-0.051058052674371544,-0.027132490864041025,0.0696640282458495,-0.00560272130022219,-0.0029311486460275016,0.007791956429637885,0.010034774703721428
15547011,-0.4033283591270447,0.0059841000474989,0.3641666793823237,-0.05149001734699661,-0.027126081892890154,0.07005405075946797,-0.005657867108800823,-0.002960200679734787,0.007866984318001275,0.010132309240485629
15547982,-0.6480780243873596,0.1986721158027649,0.38092273712158153,-0.052119301108676734,-0.02693317126844567,0.07042392673721302,-0.005708474950177348,-0.002986352789036448,0.007935365950863109,0.010221302363764884
15548947,-0.7689568400382996,0.1944832503795623,0.34860843658447216,-0.052861344459313696,-0.026745494931829393,0.07076033387851705,-0.005759486147580586,-0.0030121621916456634,0.008003649673055878,0.01031034479743329
15549912,-0.4200838208198547,-0.0694155618548393,0.4347795867919917,-0.05326672534640486,-0.026812480949019314,0.07117989617977132,-0.005810888537539867,-0.0030380362357614672,0.008072338272869357,0.010399939180454055
15550877,-0.1926880180835724,-0.0017952299676835,0.34082931518554815,-0.0534526692838555,-0.02681421334593813,0.07150879646892537,-0.0058624703633987875,-0.0030639119516402977,0.00814134426146187,0.0104898809141368
15551849,0.0071809198707342,-0.2537258565425873,0.35997814178466747,-0.05344568942974115,-0.027060834878497524,0.07185869522274006,-0.005914419573524496,-0.0030902150831421974,0.008211190913218373,0.010580805468634663
15552809,0.2998034060001373,-0.2046562284231186,0.4012684249877907,-0.05315787815998102,-0.02725730485778372,0.07224391291072835,-0.005965451136558077,-0.00311638209580567,0.008280545069612672,0.01067079525057092
15553768,0.0197475310415029,-0.2058530449867248,0.42879528045654425,-0.05313894027771222,-0.027454717927925986,0.07265512758468617,-0.006016411380284403,-0.0031427111702985507,0.008350221336966385,0.010761042504007855
15554728,-0.1107058525085449,-0.0281252712011337,0.36476558685302685,-0.05324521789612042,-0.027481718188279075,0.07300530254806507,-0.006067526789464679,-0.0031690936197592986,0.008420306427412528,0.010851709360427756
15555690,-0.3817855715751648,0.0909583196043968,0.38152069091796825,-0.053612495615975725,-0.027394216284819646,0.07337232545272816,-0.006119102010247247,-0.003195446855825295,0.008490890604498053,0.010943012075190679
15556837,-0.4799248278141022,0.1424215883016586,0.23311561584472784,-0.0541629693934785,-0.027230858723037644,0.07363970906410207,-0.006181226936141567,-0.003226680650780619,0.008575355350794579,0.011052409413815854
15557909,-0.3482746183872223,0.0347077809274196,0.3468126678466792,-0.0545363197843896,-0.02719365198188345,0.07401149224403371,-0.006239689870950432,-0.003255832245705198,0.008654695670480182,0.011155175052254607
15558895,-0.6953524351119995,0.0191491208970546,0.20498985290527116,-0.055221937285410035,-0.027174770948678952,0.0742136122389983,-0.006294138701113846,-0.0032826265698605956,0.008727870292147834,0.011250223954329557
15559863,-0.7192888259887695,0.2549226582050323,0.198407592773437,-0.055918208868967166,-0.02692800581553648,0.07440567078880299,-0.006348267527299006,-0.003308692879490035,0.008799894981471396,0.01134398963565608
15560823,-0.7581855058670044,0.4332488477230072,0.5323204421997083,-0.05664606695459949,-0.026512086921722394,0.0749166984133147,-0.006402647751575422,-0.0033341444829348885,0.008871815011948178,0.011437636087499375
15561783,-0.3997378945350647,0.1316501945257187,0.3390335464477534,-0.057029815333353155,-0.026385702734977704,0.07524217061790454,-0.006457396374295441,-0.003359474757560467,0.008944047495741366,0.011531696500841812
15562743,-0.0412902906537056,0.1537913680076599,0.24687904357910107,-0.05706945401238071,-0.02623806302169035,0.07547917449974048,-0.006512183050147326,-0.0033846632980612896,0.009016507503261117,0.01162591421249242
15563705,0.3763999044895172,-0.2405608296394348,0.27380699157714794,-0.056707357304261796,-0.026469482539803486,0.0757425768256377,-0.0065667355278740255,-0.0034101269402645805,0.00908937186216738,0.011720395133719738
15565106,0.4051235616207123,-0.2315846681594848,0.14036125183105597,-0.05613977919443118,-0.026793932659894923,0.07593922293945302,-0.006645387358525424,-0.0034476652399210933,0.009195762713505553,0.011857892756915484
15566356,0.0849742218852043,-0.2477417439222335,0.37553638458251903,-0.056033561417074676,-0.027103609839797715,0.07640864342018117,-0.006715429310296767,-0.0034815447522208403,0.00929127351778078,0.011981064571461244
15567626,-0.2621035873889923,-0.3004018366336822,0.4042601013183589,-0.0563664329730587,-0.02748512017232249,0.07692205374885548,-0.006787014680172551,-0.00351645085483969,0.009388964526041826,0.012107090887354085
15568781,-0.4847120940685272,-0.0981392413377761,0.31569618225097607,-0.05692627544170785,-0.027598470996067624,0.07728668283935536,-0.006852764528307724,-0.003548327088840148,0.009478230644721282,0.012222432776021433
15569998,-0.4278631508350372,-0.1226740479469299,0.24747699737548778,-0.05744698489627409,-0.02774776531241904,0.07758786234516132,-0.00692267750892649,-0.0035820961192253617,0.009572655073195343,0.012344658830860358
15571175,-0.1711452603340149,-0.0610378198325634,0.5466818237304683,-0.057648422867687225,-0.027819606826361965,0.07823130685169208,-0.006990529702641758,-0.00361483979645999,0.009664733321359784,0.012463612736706388
15572378,-0.3440857529640198,0.1011312901973724,0.4096464538574214,-0.058062358028502944,-0.027697945884254525,0.07872411153568255,-0.0070603787193500465,-0.003648160425358748,0.009759438427537211,0.012585891330004989
15573567,-0.3255350291728973,0.0335109606385231,0.32347530364990185,-0.05844941917818952,-0.02765810135205532,0.07910872367172228,-0.007129875078752914,-0.0036810459078663415,0.009853498699982888,0.012707346467496897
15574736,-0.4021315276622772,0.1962784826755523,0.25046867370605597,-0.058919510934026725,-0.0274286518058076,0.07940152155128466,-0.007198751987034791,-0.0037131100018273308,0.00994631907867634,0.012827255328843675
15575927,-0.2459465116262436,-0.081982173025608,0.07693046569824169,-0.059212433229373584,-0.0275262925738811,0.07949314573593126,-0.007269273995010975,-0.003745893816282823,0.010040995415247835,0.01294973566627662
15577136,0.2644972205162048,-0.5379706025123596,0.3115066909790034,-0.05889265608976949,-0.028176699032318543,0.07986975732532488,-0.007340475216223507,-0.003779959445412896,0.010137557951854153,0.013074431193599172
15578199,-0.1502009183168411,-0.1472088545560836,0.3366398239135737,-0.059052319665940295,-0.02833318204471166,0.080227605458145,-0.007403247832028402,-0.0038100776179264247,0.01022283989645616,0.01318450702398967
15579175,-0.2878352105617523,-0.0029920500237494,0.3366398239135737,-0.05933324683144856,-0.02833610228553484,0.08055616592628465,-0.0074611570809358955,-0.003837733653757107,0.010301462714400213,0.013285977519164991
15580134,-0.0047872802242636,-0.2094435095787048,0.28517669677734325,-0.05933783783318363,-0.028536958611220818,0.08082965037849411,-0.007518062067417918,-0.0038651005970652677,0.010378978349113189,0.013385942307000385
15581108,0.2094435095787048,-0.5415610671043396,0.2690195465087868,-0.05913383985485397,-0.029064439090580443,0.08109167541679367,-0.007575658427436546,-0.003893409360739493,0.010457961640969146,0.013487705466218719
15582082,0.2118371427059173,-0.5858433842658997,0.3827175521850599,-0.05892751047785841,-0.02963505054685543,0.08146444231262191,-0.0076330538226419805,-0.00392227389997213,0.01053730800778164,0.013589797763639128
15583230,-0.3315191566944122,-0.2752686142921448,0.363568725585937,-0.05930809446974359,-0.02995105891606281,0.08188181920959457,-0.007701139515093246,-0.003956657715607771,0.010631308336234255,0.013710849975457141
15584293,-0.4547916054725647,-0.1101074442267417,0.37553638458251903,-0.059791537946360926,-0.03006810312927584,0.0822810143864058,-0.007764697919930228,-0.003988620109234191,0.010718773054527004,0.013823592874430668
15585266,-0.1502009183168411,-0.4242726862430572,0.46410125732422003,-0.05993768343988321,-0.030480920452990334,0.08273258490978226,-0.007823017285917234,-0.004018278044834951,0.010799271859644221,0.013927326757129883
15586334,0.0269284509122371,-0.3422905206680298,0.16968387603759716,-0.059908923854308946,-0.03084648672906379,0.08291380728939042,-0.007887000016593636,-0.004051222092661591,0.01088782380582929,0.014041434290434876
15587452,0.0921551436185836,-0.4996723532676697,0.2570518875122083,-0.05980589440374337,-0.031405120420017044,0.08320119129962907,-0.007953863006537021,-0.00408633301729117,0.010980842737702275,0.0141612485849628
15588439,0.1753341257572174,-0.4242726862430572,0.20259613037109325,-0.059632839621621,-0.03182387756133894,0.08340115368030533,-0.008012720619243562,-0.004117743184444212,0.011063159676384736,0.014267200239720227
15589411,-0.1795230060815811,-0.2094435095787048,0.48265213012695085,-0.05980733598353229,-0.032027456652649444,0.08387029155078873,-0.008070853349819555,-0.004148873872310587,0.011144681599772102,0.014372047737289695
15590364,-0.1645627468824386,0.0095745604485273,0.2833818817138667,-0.05996416428131126,-0.032018332096542,0.08414035448406205,-0.008127999198379645,-0.004179387342798591,0.011224867357595413,0.014475126829344752
15591336,-0.1693500280380249,-0.1274613291025161,0.322278442382812,-0.06012877250856422,-0.03214222450842964,0.08445360913005814,-0.008186444365257969,-0.004210629585020785,0.01130695626566983,0.014580621826296932
15592309,0.1663579791784286,-0.4332488477230072,0.32347530364990185,-0.05996690619482361,-0.03256377563726413,0.0847683506005095,-0.008244792164985533,-0.004242314138715843,0.011389435870804125,0.014686492996985866
15593493,0.0161570701748132,-0.4655629992485046,0.37015098571777116,-0.05994777622373663,-0.03311500222837436,0.08520660936759934,-0.008315770332034437,-0.004281522301354239,0.011490320496295362,0.014815901408274932
15594541,-0.0305189099162817,-0.6720144152641296,0.2367052459716792,-0.05997976004132889,-0.033819273335571165,0.08545467646537766,-0.00837862912055775,-0.004316964899809917,0.011579876997231078,0.014930879517196924
15595509,-0.0897615030407905,-0.5200182795524597,0.2791923904418958,-0.06006664917627238,-0.034322651030177946,0.08572493469932542,-0.008436773636960382,-0.00435018922600713,0.011662858734020025,0.015037472179627977
15596472,-0.3674237430095672,-0.3740062415599823,0.37374156951904425,-0.06042047824079059,-0.03468281904080021,0.08608484783077226,-0.008494958557506264,-0.00438358878074342,0.011745758442481059,0.015144075174190188
15597440,-0.4625709354877472,-0.1603738814592361,0.33245128631591747,-0.06086824690634273,-0.034838060958052745,0.08640666067592608,-0.008553879020511603,-0.004417312023750815,0.011829400090015355,0.015251760498459754
15598544,-0.5254039764404297,-0.0867694541811943,0.30133384704589794,-0.06144829289633297,-0.034933854435468786,0.08673933324306475,-0.008621717935869154,-0.004455878999047573,0.011925160313915698,0.015375250447795346
15599563,-0.3817855715751648,-0.1352406591176986,0.33245128631591747,-0.06183733239376806,-0.035071664667109724,0.08707810110382067,-0.008684730177578403,-0.0044916170253433575,0.012013892898940491,0.015489763857041464
15600538,-0.1466104537248611,-0.2950161397457123,0.2343115234374995,-0.0619802775861498,-0.035359305403361796,0.08730655483917223,-0.0087451609482249,-0.004526092348111635,0.012099016789908684,0.015599665356554441
15601507,0.113099493086338,-0.4805232286453247,0.3001369857788081,-0.061870684177349144,-0.035824932411919114,0.08759738757839189,-0.008805113641192752,-0.0045608067076187845,0.012183898658472145,0.01570918109191241
15602751,0.3494714498519897,-0.3398968875408172,0.34082931518554815,-0.061435941693733266,-0.03624776414001989,0.0880213792464827,-0.008881539952659756,-0.0046058989262089695,0.01229339725425477,0.015850036999958805
15603797,0.0897615030407905,-0.2094435095787048,0.4485430145263667,-0.0613420511615526,-0.03646684205103922,0.08849055523967729,-0.00894570373817474,-0.004644043242994357,0.012385958375035472,0.01596886714460692
15604901,-0.4691534340381622,0.1825150549411773,0.4042601013183589,-0.06185999655273073,-0.03626534543038416,0.08893685839153276,-0.009013997174368954,-0.004684080184349501,0.012484144666699724,0.016094925296255162
15605938,-0.6857778429985046,0.1932864338159561,0.34262413024902294,-0.06257114817592017,-0.03606490739851702,0.08929215961460099,-0.009078883455027383,-0.004721479493321763,0.012576740636220066,0.01621397232101304
15606908,-0.5050580501556396,-0.1394295245409011,0.17566818237304815,-0.06306105448457114,-0.03620015403732169,0.08946255775150284,-0.009140052677877417,-0.004756593642737965,0.012663519317239023,0.01632576085622337
15607878,0.1089106202125549,-0.3572507798671722,0.2756018066406227,-0.06295541118296497,-0.03654668729379285,0.08972989150394425,-0.009201119426724892,-0.004792043929412944,0.012750557311997849,0.016437791685406513
15608853,0.1843102872371673,-0.5367738008499146,0.3743395233154292,-0.06277570865290873,-0.037070041749621516,0.09009487253917679,-0.009262325742661478,-0.004828187220118825,0.012838399812723547,0.016550727468816234
15609816,-0.1555866003036499,-0.3746046721935272,0.28278297424316357,-0.06292553854900114,-0.037430786048943884,0.09036719254337296,-0.009322923036284165,-0.004864233067083958,0.012925423419142814,0.01666265968672218
15611145,-0.4918930232524872,-0.0251332204788923,0.3689541244506831,-0.0635792643769037,-0.037464188098960335,0.09085753257476792,-0.00940741987864107,-0.004914022973067476,0.013046173079934682,0.01681813909398119
15612331,-0.2399624139070511,-0.2656940519809723,0.2289261245727534,-0.06386385979979746,-0.03777930124460977,0.09112903895851121,-0.00948316241636363,-0.004958829224343583,0.013154252120139476,0.016957438059197784
15613565,-0.2261989861726761,-0.3004018366336822,0.21935218811035107,-0.06414298934873454,-0.038149997111015736,0.09139971955863939,-0.009562314865219967,-0.0050059063207785765,0.013267039374074837,0.01710296165660409
15614747,-0.0197475310415029,-0.2549226582050323,0.28278297424316357,-0.06416633093042559,-0.03845131569301408,0.09173396903419481,-0.009638159468379731,-0.005051355775927719,0.013375468925473255,0.017242780578816657
15615972,-0.1771293580532074,-0.1160915419459343,0.33484500885009716,-0.06438331439404077,-0.03859352783189785,0.09214415417003619,-0.00971702902851243,-0.005098632847521794,0.01348834551433155,0.01738827693501485
15617134,-0.5816545486450195,0.2375687658786773,0.27081531524658153,-0.06505919697956629,-0.03831747292594683,0.09245884156635271,-0.009792627815402686,-0.005143157751061744,0.013595782688231651,0.01752692038234111
15618410,-0.6008036732673645,0.1071153879165649,0.3079161071777339,-0.06582582246665544,-0.038180793690965296,0.0928517425191115,-0.009876621564870139,-0.005191876443811415,0.013714261511686037,0.01768005099976736
15619612,-0.3375032544136047,0.2591115236282348,0.23491043090820263,-0.0662315013784606,-0.03786934163956416,0.09313410485706317,-0.009956231829527049,-0.005237395392462172,0.013826208705724227,0.017824727485000042
15620666,-0.2285926192998886,-0.241757646203041,0.28757041931152294,-0.06647243799920267,-0.038124154198662163,0.09343720407901751,-0.010026293779178208,-0.005277578250987562,0.013924691518823511,0.01795205929792123
15621790,-0.1154931336641311,-0.2112387269735336,0.3312544250488276,-0.06660225228144116,-0.03836158652778041,0.0938095340527724,-0.010101154710742547,-0.005320696674244787,0.014030133435098827,0.018088332808646405
15622971,-0.0724076107144355,-0.1908927857875824,0.4317869567871089,-0.0666877656696949,-0.03858703090779555,0.09431947444873798,-0.010179912961998458,-0.005366267957746894,0.014141524734422787,0.01823211950165138
15624166,-0.3033938705921173,-0.2250021696090698,0.34023040771484325,-0.06705032134505248,-0.03885590850047839,0.09472604978595721,-0.010260038096005796,-0.005412700768404966,0.014254722363917007,0.01837832476076472
15625346,-0.4440202116966247,-0.0694155618548393,0.29654640197754034,-0.0675742651948545,-0.0389378188634671,0.09507597454029071,-0.010339775728935725,-0.005458647394663857,0.01436691201387455,0.018523389385271035
15626531,-0.7324538230895996,0.1418231725692749,0.1319841766357417,-0.06844222297521568,-0.03876975840397251,0.09523237578960406,-0.010420879763161356,-0.005504589558372564,0.01447976237918523,0.018669728434074183
15627689,-0.5882370471954346,0.0532584898173809,0.2666258239746089,-0.069123401475868,-0.038708085072763986,0.09554112849376666,-0.01050092466207041,-0.0055494135208868246,0.014590399005981011,0.018813430105592433
15628866,-0.5678911209106445,-0.0508648492395877,0.19721073150634716,-0.06979180932517982,-0.03876795300031898,0.09577324552474963,-0.010583069621646147,-0.0055950434015682,0.014703124115963641,0.01896016170952856
15630038,-0.3291254937648773,-0.0053856899030506,0.42580360412597607,-0.07017754440387226,-0.038774265028885355,0.09627228734878526,-0.010665317703687486,-0.005640486840182053,0.014815955236736417,0.019106978387276045
15631462,-0.3464793860912323,0.080186940729618,0.3115066909790034,-0.07067093104966618,-0.03866007882528638,0.09671587287673937,-0.01076595310950221,-0.005695538792429261,0.014953678639712894,0.019286197482963625
15632627,-0.6839826107025146,0.4045251607894897,0.3462147140502907,-0.07146777079113462,-0.038188807012966626,0.09711921301860796,-0.010849213062473882,-0.005740028752599367,0.015066822522879572,0.01943354046723274
15633729,-0.4817200601100921,0.0813837572932243,0.13018840789794872,-0.07199862629737594,-0.038099122112429495,0.0972626806441115,-0.01092855554865359,-0.0057820139851672645,0.015174005996949383,0.019573335691703976
15634963,-0.4033283591270447,0.0125666102394461,0.2750038528442378,-0.07249633349253871,-0.03808361491539402,0.09760203539852129,-0.011018016024183383,-0.005829009165972861,0.015294446908631158,0.01973053803643212
15636030,-0.4482091069221496,-0.0149602498859167,0.24328845977783153,-0.07297457260962464,-0.038099577502022294,0.09786162418510423,-0.011095879893157853,-0.005869661415167518,0.015398865261636665,0.019866970757469078
15637141,-0.4404297769069671,0.3536603152751922,0.3216795349121089,-0.07346389009176829,-0.03770666089175156,0.09821901014839159,-0.011177498275049807,-0.005911553515418254,0.015507986581911527,0.020009512249906127
15638171,0.0694155618548393,-0.2244037538766861,0.3581823730468763,-0.07339239206305781,-0.037937796758244546,0.09858793799262987,-0.011253092438874757,-0.005950629446079246,0.015609532158043936,0.020141985364789974
15639129,0.2351751327514648,-0.3117716014385223,0.2953495407104487,-0.0731670942858819,-0.03823647395242265,0.09887088285263047,-0.011323186515200631,-0.005987259988125667,0.015704250463816755,0.02026537237885652
15640580,0.1747357249259948,-0.2650956213474273,0.280988159179687,-0.07291355274901429,-0.03862112769899777,0.0992785966716002,-0.01142898408023945,-0.006043299244416913,0.015848303707587247,0.02045267398830433
15641733,-0.0909583196043968,-0.0502664409577846,0.26303524017333935,-0.07301842769151816,-0.038679084905422094,0.09958187630352006,-0.011513174327367771,-0.0060878962293128645,0.015963121610965206,0.020601866788174963
15642709,-0.6809905767440796,0.3219445943832397,0.19661182403564403,-0.07368307449442038,-0.03836486698130405,0.09977376944377885,-0.011585089008074326,-0.006125340339486618,0.016060500809942334,0.02072857370553278
15643680,-0.6983444690704346,0.3243382275104522,0.3557896041870112,-0.07436116697388777,-0.0380499345623914,0.10011924114944443,-0.011657293701205971,-0.006162286825946699,0.016157716593098444,0.020855169164125748
15644638,-0.4164933562278747,-0.0945487841963768,0.398874702453611,-0.07476016760915408,-0.03814051229765153,0.10050136311439499,-0.01172891394177554,-0.00619882543672785,0.016253996898962036,0.020980592800015643
15645602,-0.1549881845712661,-0.0969424247741699,0.27739757537841747,-0.07490957621908077,-0.03823396479513383,0.10076877437705978,-0.011801126773250735,-0.006235682978790359,0.01635113799746152,0.021107108971679212
15646841,0.0861710384488105,-0.3530619144439697,0.21755641937255987,-0.0748028103024427,-0.038671408507129905,0.10103832678066238,-0.011893807455215462,-0.0062835968539306924,0.01647632448434276,0.021270061441326853
15648280,-0.3512666821479797,-0.2010657638311386,0.20618671417236278,-0.07530828305805363,-0.038960742141282916,0.10133502946235641,-0.012002176074536,-0.006339661361871998,0.016622145591739093,0.021460178489014218
15649493,-0.4978771209716797,-0.2345767170190811,0.35937923431396435,-0.07591220800579228,-0.039245283699027064,0.10177095647357925,-0.012094257582847026,-0.006387265890998918,0.016745593761941544,0.021621358479118433
15650665,-0.2926225066184997,-0.1585786491632461,0.14155811309814403,-0.07625516158354916,-0.039431137875846387,0.10193686258213028,-0.012183628632222946,-0.00643347918458941,0.016865063764887802,0.02177753055009221
15651847,-0.1531929671764373,-0.2261989861726761,0.13736957550048778,-0.07643623567075171,-0.03969850507750249,0.10209923342037186,-0.012273976262785775,-0.006480402817591018,0.01698574505879068,0.02193539717397208
15653052,0.0430855192244052,-0.2369703650474548,0.363568725585937,-0.0763843176200863,-0.039984054367384676,0.10253733373470292,-0.01236601936551798,-0.006528583603103716,0.017109302545940997,0.022096811363172368
15654245,-0.2633003890514374,0.1364374756813049,0.2762007141113276,-0.07669843498422466,-0.03982128445889688,0.10286684118663773,-0.01245752059845416,-0.00657609039546318,0.017232022687476655,0.022257075060571705
15655423,-0.4434218108654022,0.2010657638311386,0.3689541244506831,-0.0772207858774241,-0.0395844289891038,0.10330146914524063,-0.012548486684217765,-0.0066227208528123445,0.01735371181812975,0.022415982321213633
15656609,-0.4158949553966522,0.0376998297870159,0.30552238464355597,-0.07771403729452453,-0.039539716990976394,0.10366381869342789,-0.012640655532449072,-0.0066696149571636425,0.017476657107100155,0.022576613554871568
15657787,-0.3614396452903747,0.0155586600303649,0.253461303710937,-0.0781398131966766,-0.03952138888946062,0.10396239610919937,-0.012732704232394757,-0.006716171153275427,0.01759912480971679,0.02273670833910928
15658977,-0.0323141403496265,-0.2591115236282348,0.363568725585937,-0.07817826702369265,-0.039829731602578224,0.10439504289264663,-0.01282573637015295,-0.006763568533882495,0.01772335491075904,0.022898966833504
15660171,0.1675547957420349,-0.2734733819961548,0.3581823730468763,-0.07797820659757666,-0.040156258820681634,0.1048227126460646,-0.012918842348830457,-0.0068115151069143886,0.01784851322965844,0.023062147562509232
15661368,0.1184851825237274,-0.3578491806983948,0.34322303771972784,-0.07783637983409576,-0.040584604289977615,0.10523355062221512,-0.01301201249549187,-0.006860094878249492,0.017974477789753234,0.023226175378993283
15662397,0.2315846681594848,-0.6193543672561646,0.38391441345214794,-0.07759807921055965,-0.04122191993388421,0.10562859855365739,-0.013091860918999535,-0.006902512233861459,0.018083169617664947,0.023367552736268192
15663373,0.3734078407287597,-0.4733423292636871,0.24568218231201122,-0.07723363315800838,-0.04168390204724557,0.10586838436359391,-0.013167240944961751,-0.006943195722259571,0.018186497160803814,0.02350176333640108
15664340,-0.0406918786466121,-0.1675547957420349,0.24987071990966747,-0.07727298220465965,-0.04184592753472812,0.10611000934974657,-0.013241963918753657,-0.006983660734185653,0.01828910553984502,0.023634984813267174
15665312,-0.6432907581329346,-0.0017952299676835,0.30492443084716747,-0.07789826082156487,-0.04184767249825671,0.10640639589653002,-0.013317681028272218,-0.007024336671853959,0.018392532556656446,0.02376945913347675
15666273,-0.5038612484931946,0.0305189099162817,0.3671593093872083,-0.07838247148136683,-0.041818343825827164,0.10675923599285113,-0.013393006583365811,-0.007064524100270578,0.018495128182445576,0.02390292644406698
15667521,-0.1382327079772949,-0.1675547957420349,0.2779955291748042,-0.0785549859009225,-0.042027452210913224,0.10710617441326128,-0.013491043205770162,-0.007116974360629798,0.018628796688113326,0.02407678626554801
15668703,0.0700139701366424,-0.4350440800189972,0.17566818237304815,-0.07847222938822099,-0.04254167431349568,0.10731381420482623,-0.01358379738090704,-0.00716725861966835,0.01875564161650343,0.02424176643426511
15669887,-0.0466759800910949,-0.4434218108654022,0.4898332977294917,-0.07852749374864884,-0.04306668573756032,0.10789377682933796,-0.013676773933505441,-0.007218249575581621,0.01888338784826937,0.024407777629103504
15671070,-0.5224119424819946,-0.0891630873084068,0.24149269104004034,-0.07914550707660505,-0.04317216566984616,0.10817946268283832,-0.013770403068377065,-0.0072693222475690485,0.019011364152623167,0.024574356828780196
15672271,-0.6732112765312195,-0.1244692802429199,0.1349758529663081,-0.07995403381971904,-0.04332165327541791,0.10834156868225085,-0.013866427862994548,-0.007321351553152826,0.01914148237661055,0.024744218674643517
15673468,-0.0688171535730362,-0.3404952883720398,0.20259613037109325,-0.08003640795254596,-0.04372922613559924,0.10858407625030506,-0.013962231443313745,-0.007373695436837138,0.019271457515882166,0.02491393919191309
15674522,0.0586441792547702,-0.4482091069221496,0.3904966735839839,-0.07997459698761143,-0.044201638534295186,0.10899565974426258,-0.014046524668538687,-0.007420283963852285,0.019386338941252617,0.025063830651223227
15675495,0.1585786491632461,-0.4015331268310547,0.5335173034667964,-0.0798202999619756,-0.0445923302667018,0.10951477208053577,-0.01412418982040169,-0.007463672301201786,0.019492896814486977,0.0252026222548905
15676773,-0.3189525306224823,0.243552878499031,0.3689541244506831,-0.08022792129611113,-0.04428106968798004,0.10998629545158374,-0.01422672110381812,-0.007520263508263025,0.0196334593000741,0.025385560476128995
15677964,-0.4906961917877197,0.2776622474193573,0.4264015579223628,-0.0808123404605303,-0.043950373951303585,0.11049413970706927,-0.014322968601306612,-0.007572608403639027,0.01976505782046522,0.025556786539688688
15679105,0.010172969661653,-0.4170917868614197,0.2229418182373042,-0.08080073310214636,-0.04442627568011247,0.11074851632167804,-0.014415162237776162,-0.0076232987841900355,0.019891421877588255,0.0257212023631602
15680288,-0.0670219212770462,-0.3345111906528473,0.26542896270751903,-0.08088002003501711,-0.044822002418654784,0.11106251878456103,-0.014510843301477587,-0.0076763232130513046,0.02002280883731039,0.02589214910212635
15681511,-0.1238708719611167,-0.1214772313833236,0.3228763961791987,-0.08103151411142556,-0.044970569072636586,0.11145739661708819,-0.01460994484323586,-0.007731322219027139,0.02015912123337309,0.02606940736723124
15682691,0.3153620660305023,-0.5648990273475647,0.2558550262451149,-0.08065938687350957,-0.045637149924906716,0.11175930554805742,-0.014705122919746601,-0.007785174055938529,0.020290997213919797,0.02624069631510216
15683872,0.1759325414896011,-0.3985410630702972,0.3336481475830073,-0.08045161054201035,-0.04610782692039274,0.11215334401035296,-0.014800136271796716,-0.007839627399531512,0.020423450313196024,0.02641251813293887
15685067,-0.1125010848045349,-0.2142307758331298,0.26064247131347607,-0.08058604933835177,-0.046363832697513326,0.11246481176357256,-0.014896436600756046,-0.00789503217960504,0.020557845763253493,0.02658684597584044
15686283,-0.3488730192184448,0.0233379900455474,0.267224731445312,-0.0810102789297214,-0.04633545370161794,0.11278975703701007,-0.014994945099934587,-0.007951376091306209,0.0206949981078105,0.026764822192156038
15687508,-0.7312570214271545,0.040093470364809,0.16429752349853466,-0.08190606878096966,-0.04628633920042105,0.11299102150329578,-0.015095280034191276,-0.008008076856826725,0.020833412109152037,0.02694490368075678
15688731,-0.0466759800910949,-0.2136323750019073,0.26842159271240185,-0.08196315350462108,-0.04654761159504838,0.11331930111118305,-0.015195520970927428,-0.008065004585807469,0.020972001614411016,0.027125136096651185
15689972,0.1436184048652649,-0.3530619144439697,0.3940872573852534,-0.08178492306418328,-0.046985761430873345,0.11380836339759814,-0.015297016060450079,-0.008123313915743183,0.021113237793387436,0.027308528694301677
15691173,0.3351095914840698,-0.5146325826644897,0.5670275115966792,-0.08138245644481092,-0.047603835162653395,0.11448936343902576,-0.015394756390640297,-0.00818048612177353,0.021250739518877706,0.02748659323406377
15692371,-0.1142963096499443,-0.2070498615503311,0.37015098571777116,-0.08151938342377155,-0.04785188089679069,0.11493280431991565,-0.015492416611981976,-0.008237812675087886,0.021388429018452965,0.027664804825381556
15693562,-0.4775311946868896,-0.0843758136034011,0.3551906967163081,-0.08208812307664363,-0.04795237249079234,0.11535583643970478,-0.015590183566566258,-0.008294923950724419,0.021525817819652654,0.027842780389041786
15694759,-0.1615706980228424,-0.3446841537952423,0.2893652343749995,-0.08228152320217698,-0.04836495942288524,0.11570220662525164,-0.015688674549839264,-0.008352816807153612,0.02166431336098308,0.02802225064386357
15695899,-0.0622346401214599,-0.3925569653511047,0.2373041534423841,-0.08235247069191544,-0.0488124743633855,0.11597273336017597,-0.015782556366428047,-0.008408463027927872,0.02179652227701368,0.028193611321075243
15697169,0.3584475815296173,-0.7539966106414795,0.34082931518554815,-0.08189724226337282,-0.04977005005890017,0.11640558659046162,-0.01588656586410253,-0.008471670991502674,0.021944357371983567,0.028384978506457693
15698368,0.1107058525085449,-0.2046562284231186,0.34262413024902294,-0.08176450594621508,-0.050015432876779495,0.1168163929226302,-0.015984601506732043,-0.008531639495521933,0.0220844202270978,0.02856602833047703
15699562,-0.1753341257572174,-0.0742028430104255,0.25166553497314403,-0.08197385489236919,-0.050104031071333946,0.11711688157138814,-0.016082478289473533,-0.008591463708621105,0.022224257783694037,0.028746773568942063
15700734,-0.1687516272068023,-0.3566523492336273,0.3300575637817378,-0.08217163179945557,-0.05052202762463576,0.11750370903614034,-0.016178783441942495,-0.008650675524997178,0.022361972130684395,0.028924816650647302
15701922,0.0161570701748132,-0.4206822216510772,0.343820991516111,-0.08215243720008789,-0.05102179810395724,0.11791216837406147,-0.0162763805373362,-0.008711289421144679,0.02250205178671278,0.0291058320854606
15702965,-0.2728749513626098,-0.1442168056964874,0.14514869689941357,-0.08243704577435909,-0.05117221623229867,0.11806355846492757,-0.016362362376078857,-0.008764662042674965,0.0226251920781917,0.02926509046327205
15703944,-0.1280597448348999,-0.2076482772827148,0.3420261764526362,-0.08256241626455246,-0.05137550389575845,0.1183984020916747,-0.016443190981601855,-0.008814958660988912,0.022741104113839446,0.029414959496298163
15705206,0.4823184609413147,-0.6307241320610046,0.4042601013183589,-0.08195373036684453,-0.052171477750419436,0.11890857833953847,-0.016546616589324815,-0.008880799065909942,0.022891166739703945,0.02960852288291522
15706390,0.3482746183872223,-0.4996723532676697,0.31509727478027116,-0.08154137321867405,-0.052763089816688355,0.11928165351287831,-0.016643161575215726,-0.008943270564252901,0.023032396217463193,0.029790404346406285
15707574,0.4015331268310547,-0.5511355996131897,0.3121055984497083,-0.08106595799650608,-0.05341563436663037,0.11965118654144277,-0.016739143669483588,-0.009006514675342992,0.02317406322232826,0.029972544830515285
15708618,0.1513977348804474,-0.2609067559242248,0.37254470825195085,-0.0809078987612909,-0.053688021019815256,0.12004012321685781,-0.016823611515790374,-0.009062564969287678,0.023299385110966662,0.030133458726238672
15709725,0.1023281142115593,-0.4865073263645172,0.267224731445312,-0.0807946215388587,-0.05422658463010078,0.12033594099456776,-0.016913051161833892,-0.009122593798473199,0.02343259699764765,0.030304448836250397
15710871,-0.0682187378406524,-0.1968768984079361,0.39767784118652294,-0.08087280021242409,-0.05445220555567627,0.12079167980056751,-0.01700573139087733,-0.009184996026040004,0.023571024262699098,0.0304819985717766
15712009,-0.2321830838918686,-0.1202804148197174,0.27739757537841747,-0.08113702456189303,-0.05458908466774111,0.12110735824134815,-0.017098065324828764,-0.009247118404391894,0.023708844436377753,0.03065880527915782
15713196,-0.2232069373130798,-0.2387655973434448,0.11642498016357372,-0.08140197119648367,-0.05487249943178778,0.12124555469280231,-0.01719468946463899,-0.009312252061217425,0.023852762909798108,0.030843632773524837
15714338,0.049069620668888,-0.4308552145957947,0.3115066909790034,-0.0813459336896798,-0.055364536086856174,0.12160129533390032,-0.017287586520912605,-0.009375478361428616,0.02399163158906942,0.03102190562375705
15715535,-0.0658250972628593,-0.2333799004554748,0.3869060897827161,-0.08142472633110344,-0.05564389182770138,0.12206442192337023,-0.017385051918330938,-0.009442084099946374,0.024137742702111695,0.03120935124456881
15716728,-0.3249366283416748,-0.2022625803947448,0.24867385864257763,-0.08181237572871505,-0.05588519108611231,0.12236108983673083,-0.017482654082575294,-0.009508755132912106,0.024283719482286914,0.03139679362360224
15717897,-0.4942866563796997,-0.0167554803192615,0.3719458007812495,-0.08239019683002292,-0.05590477824260553,0.12279589447784411,-0.01757896822266959,-0.00957410781867771,0.024427267882931515,0.03158124570883471
15719056,-0.5505372285842896,0.0299204997718334,0.23251670837402294,-0.08302826947795211,-0.055870100383369974,0.12306538134284961,-0.01767519798699454,-0.009638861265022036,0.024569900659907877,0.0317647648945107
15720253,-0.3422905206680298,-0.2513321936130523,0.1690849685668958,-0.08343799123119174,-0.0561709450191248,0.12326777605022418,-0.017775073262498275,-0.009706097886209929,0.024717452187839994,0.03195487456276469
15721435,0.0448807515203952,-0.4081156253814697,0.2869724655151362,-0.08338494218289463,-0.05665333768832569,0.12360697750446308,-0.01787363426415846,-0.00977306213135753,0.02486355563525027,0.032143054367303976
15722632,0.2890320420265198,-0.4781295955181122,0.24927181243896435,-0.0830389708285889,-0.057225658814160876,0.12390535586395252,-0.01797303191224028,-0.00984156124495808,0.025011870346219423,0.03233388102397791
15723893,-0.0125666102394461,-0.0694155618548393,0.3713478469848628,-0.08305481732410083,-0.05731319183765983,0.12437362549900043,-0.018077764036885973,-0.00991383317986537,0.02516870548797366,0.032535417268445825
15725071,0.0580457709729671,-0.1801214069128036,0.40844959259033153,-0.08298643940589467,-0.057525374855003114,0.12485477911907183,-0.018175522062506118,-0.009981598071444563,0.02531578441777593,0.032724162983823114
15726256,-0.1753341257572174,-0.1693500280380249,0.31509727478027116,-0.08319421034491697,-0.05772605463822817,0.12522816938968645,-0.018274107201764846,-0.010050003446190864,0.02546417979850271,0.03291458667673826
15727451,0.1855071038007736,-0.4440202116966247,0.28757041931152294,-0.08297252935587505,-0.05825665879120564,0.12557181604076373,-0.018373259374345117,-0.010119620153446354,0.02561423811867142,0.03310698667180386
15728639,0.1513977348804474,-0.3500698506832123,0.3318523788452161,-0.08279266884683709,-0.0586725417738173,0.12596605666683183,-0.01847161706493516,-0.01018932313307365,0.025763885793991616,0.03329865994465298
15729824,-0.0837773978710174,-0.2573162913322449,0.37852901458740185,-0.08289194506331424,-0.05897746157904601,0.1264146135491179,-0.018569844019835188,-0.01025921142504482,0.025913687111047322,0.033490442004757696
15731006,0.0616362318396568,-0.4392329454421997,0.259445610046388,-0.08281909103727976,-0.059496634920558684,0.12672127826019272,-0.018667736185441253,-0.01032953644752092,0.02606347166195087,0.03368216520034322
15732192,-0.0484712123870849,-0.4093124568462372,0.24568218231201122,-0.08287657789517085,-0.059982079494378324,0.12701265732841477,-0.018766027806824927,-0.010400675193801253,0.02621410867354237,0.03387502527942627
15733493,0.0753996595740318,-0.4936882555484772,0.2923578643798841,-0.08277848293806503,-0.06062436791484689,0.12739301490997298,-0.01887372261312735,-0.010479547496458469,0.026379846985940245,0.034087162510385405
15734658,-0.0771948918700218,-0.2716781497001648,0.259445610046388,-0.0828684149870936,-0.060940872959247584,0.12769526904567702,-0.018970264316587312,-0.010550543613455992,0.026528611974378457,0.03427757506107687
15735707,-0.4015331268310547,0.1304533779621124,0.22653240203857372,-0.08328962323713938,-0.06080402736576533,0.12793290153541548,-0.019057635131363073,-0.01061432703816268,0.02666281358808911,0.034449427044675573
15736751,-0.3901633322238922,0.0676203295588493,0.2678226852416987,-0.08369695375598113,-0.060733431741705896,0.12821250841880782,-0.019145014751084318,-0.01067773274090102,0.026796667446878343,0.03462090340479196
15737986,0.0077793300151824,-0.1585786491632461,0.2037929916381831,-0.08368734628341237,-0.060929276373422506,0.12846419276348098,-0.019248368623744332,-0.010752980397222197,0.026955320724941244,0.03482406635479316
15739179,-0.2315846681594848,-0.0789901241660118,0.3863081359863276,-0.08396362679252664,-0.06102351159155256,0.12892505836971266,-0.019348537230507817,-0.010825781446550919,0.02710912831957631,0.03502096907762673
15740236,-0.1334454268217086,-0.1639643460512161,0.4096464538574214,-0.08410467860867718,-0.06119682190532869,0.12935805467143996,-0.019437435875797188,-0.01089046648730485,0.02724585978336402,0.03519592375647456
15741215,-0.1663579791784286,-0.1693500280380249,0.37015098571777116,-0.08426754307029286,-0.06136261558277792,0.12972043248645765,-0.019519933800463005,-0.01095054048796039,0.027372856086768264,0.03535838518512751
15742189,-0.3428889214992523,-0.0071809198707342,0.3133024597167964,-0.08460151687983312,-0.06136960979873202,0.1300255890822218,-0.01960233567790396,-0.011010314487904356,0.027499501010534347,0.03552043278143106
15743165,-0.5248056054115295,-0.1142963096499443,0.31569618225097607,-0.08511372715071477,-0.06148116299695036,0.13033370855609877,-0.01968540667560306,-0.011070320102989379,0.0276267067100851,0.035683359522494365
15744199,-0.6570541858673096,0.2447496950626373,0.41204017639160107,-0.08579312117890157,-0.061228091812255594,0.1307597580984877,-0.01977411676290204,-0.011133629949923252,0.027761912299958936,0.035856619809532
15745179,-0.5313881039619446,-0.0454791598021984,0.2361072921752907,-0.08631388152078429,-0.06127266138886175,0.13099114324481947,-0.01985870436679241,-0.011193677158084336,0.02789028362033886,0.03602130574909828
15746154,-0.6941556334495544,0.2501353919506073,0.23072189331054815,-0.0869906832633976,-0.061028779381709905,0.13121609709079726,-0.019943520282974223,-0.011253180217981504,0.028018219315002386,0.0361856142669894
15747113,-0.3387000560760498,0.1657595783472061,0.525737228393556,-0.08731549661717453,-0.060869815946074934,0.1317202790928267,-0.020027255844230093,-0.01131155437147379,0.028144539062652407,0.03634772782442148
15748087,-0.0885646790266037,0.1597754657268524,0.25525611877441357,-0.08740175861454644,-0.06071419464245698,0.13196889855251295,-0.02011238515712066,-0.011370689997055544,0.028273076769842555,0.03651256629916497
15749054,0.0430855192244052,0.0323141403496265,0.3444189453124995,-0.08736009491745644,-0.060682946868738895,0.13230195167263015,-0.02019686236890584,-0.011429370406677615,0.02840101275710999,0.0366764404362131
15750020,-0.5056564807891846,0.3979426622390747,0.47547096252441357,-0.08784855907789879,-0.06029853425701595,0.13276125662242874,-0.02028172407697509,-0.011487618790769892,0.028529260131007254,0.03684063518235375
15751082,-0.4751375317573547,0.2106403261423111,0.42580360412597607,-0.0883531551366251,-0.06007483423065282,0.13321346005001053,-0.020375555127730188,-0.011551418264722845,0.028670732825580365,0.03702174268515133
15752282,-0.2525290250778198,0.1627675145864486,0.23311561584472784,-0.0886561899667185,-0.05987951321314908,0.13349319878902421,-0.02048194255569025,-0.011623273680578625,0.028830924664127195,0.037226773683691754
15753454,-0.3937537968158722,0.1693500280380249,0.17147869110107372,-0.08911766941658669,-0.05968103498028851,0.13369417181499468,-0.02058638846424649,-0.011693219853575522,0.028987614233494368,0.03742743057564597
15754665,-0.5690879225730896,0.4823184609413147,0.3037275695800776,-0.08980683489082271,-0.05909694732408858,0.13406198590175616,-0.020695144541299275,-0.011764786256784994,0.029149963298421396,0.03763534991935668
15755868,-0.2447496950626373,-0.109509028494358,0.4018663787841792,-0.09010126877398306,-0.05922868668536729,0.13454543115543352,-0.020803536367634375,-0.01183603836686749,0.029311821452101382,0.0378425924912831
15757085,-0.0706123784184455,-0.0017952299676835,0.2037929916381831,-0.0901872040385183,-0.059230871480237965,0.1347934472262572,-0.020913294194949254,-0.01190812233745894,0.029475865077375738,0.038052540963095294
15758285,-0.0353061892092227,-0.2184196561574936,0.3414272689819331,-0.09022957146556937,-0.059492975067626956,0.1352031599490355,-0.02102156968070794,-0.011979513907540092,0.029638108869314582,0.038260065899723035
15759496,-0.4200838208198547,0.095745600759983,0.26303524017333935,-0.09073829297258221,-0.05937702714510662,0.13552169562488542,-0.021131453753497734,-0.012051419487412816,0.02980222564271632,0.038470088414990486
15760686,-0.4918930232524872,0.2782606482505798,0.35279697418212663,-0.09132364567025267,-0.05904589697368843,0.13594152402416215,-0.021240128891845334,-0.012121684104811506,0.02996399605630507,0.03867711675579384
15761896,-0.2740717828273773,0.0131650203838944,0.2791923904418958,-0.0916552725274738,-0.05902996729902392,0.13627934681659684,-0.02135103177160358,-0.012193110365243325,0.030128894065953152,0.03888815701120917
15763101,-0.0029920500237494,-0.1693500280380249,0.3791269683837868,-0.09165887794775242,-0.059234034082809736,0.1367361948134993,-0.02146148071953062,-0.01226448737631311,0.03029366118070342,0.03909883262975745
15764158,0.1466104537248611,0.0215427596122026,0.3468126678466792,-0.09150391069816524,-0.05921126338589964,0.13710277580341323,-0.02155820035313858,-0.012327073681712005,0.03043857881472763,0.039283836730655615
15765134,-0.3698173761367798,0.1346422582864761,0.6466164016723628,-0.09186485245727474,-0.059079852541812035,0.13773387341144547,-0.021647860449136882,-0.012384735617792814,0.0305730070751772,0.039455294954755644
15766108,-0.3488730192184448,0.1651611626148224,0.5311235809326149,-0.09220465477799351,-0.058918985569425195,0.13825118777927384,-0.021737667782890647,-0.012442122709737434,0.030707663732074213,0.03962692556893144
15767082,-0.5044596195220947,0.0388966500759124,0.239697875976562,-0.09269599844740803,-0.05888110023225126,0.138484653510475,-0.02182795368537842,-0.012499472901363646,0.030842547784593416,0.03979898414215968
15768050,-0.4763343632221222,-0.0777933001518249,0.1589121246337868,-0.09315709011100705,-0.05895640414679822,0.13863848044712052,-0.021918129748605877,-0.012556542700577747,0.030976749833666228,0.03997036660484483
15769023,0.0837773978710174,-0.5337817072868347,0.24927181243896435,-0.09307557470287856,-0.05947577374798831,0.13888102192062363,-0.022008692282791776,-0.01261441262843454,0.031111881067994996,0.040142933195621025
15770244,-0.1196819990873336,0.0227395799010992,0.3665604019165034,-0.09322170642376419,-0.05944800872092907,0.13932859217136367,-0.022122515986335193,-0.012686998647082795,0.03128200127903623,0.04035999569200127
15771421,-0.3548571467399597,-0.093950368463993,0.3252701187133802,-0.09363937328547713,-0.05955858830461119,0.13971143510108933,-0.0222327295286922,-0.012757099105517323,0.03144644163815021,0.040569896864369286
15772649,-0.0520616695284843,-0.0251332204788923,0.391095581054687,-0.0937033050156581,-0.059589451899359276,0.14019170047462448,-0.02234779718725143,-0.012830274952449736,0.031618597046333054,0.0407894063900955
15773866,-0.7653663754463196,0.4362408816814422,0.16190475463867138,-0.09463475589457628,-0.05905854674635296,0.14038873856101974,-0.02246296768517513,-0.012902149203840047,0.031789450141161815,0.04100755432332908
15774922,-0.4512011408805847,0.0508648492395877,0.20858043670654425,-0.09511122429934617,-0.059004833465555954,0.14060899950218186,-0.022563405138035238,-0.012964458307979675,0.03193793324463612,0.04119728159213046
15775890,0.4517995417118072,-0.5978115797042847,0.6304592514038081,-0.09467388234296914,-0.0595835150747097,0.14121928405754075,-0.02265504945614323,-0.013022135150571993,0.03207463351160382,0.04137160118539959
15777026,0.0676203295588493,-0.5864418148994446,0.2941526794433589,-0.09459706564859029,-0.06024971297643547,0.1415534415013884,-0.02276251172272003,-0.013090578824513224,0.032235438221149396,0.04157666017367557
15778027,0.5182230472564697,-0.8718833923339844,0.37374156951904425,-0.09407832437828656,-0.06112246825216179,0.14192755681247696,-0.022856684125422695,-0.013151762415233638,0.032377507705518685,0.04175763246470068
15778991,0.5313881039619446,-0.6277320981025696,0.424606742858888,-0.09356606624606724,-0.061727601994732664,0.14233687771259293,-0.022946881813283904,-0.01321126782355656,0.032514720455633625,0.0419321359909862
15779956,0.5918275117874146,-0.6732112765312195,0.3689541244506831,-0.09299495269719238,-0.06237725087658529,0.14269291844268783,-0.023036621942636695,-0.013271461870652465,0.03265241912193082,0.042106984280833815
15780921,0.0676203295588493,-0.2351751327514648,0.2618383789062495,-0.0929296990791681,-0.06260419487969046,0.14294559247833236,-0.02312629910224809,-0.013331874918711366,0.03279036161867241,0.042282057827145905
15781887,-0.1089106202125549,-0.1974752992391586,0.2343115234374995,-0.09303490673829343,-0.06279495601875548,0.14317193740997297,-0.023216170822157284,-0.013392534846225483,0.03292866571021044,0.04245759770295229
15782997,0.0281252712011337,-0.3536603152751922,0.19182437896728288,-0.09300368768726017,-0.06318751896871094,0.14338486247062665,-0.023319404915490144,-0.013462672992280753,0.033087822907552834,0.042659608934813846
15784350,-0.1735389083623886,-0.2908272743225097,0.1469444656372083,-0.09323848583027448,-0.0635810082708693,0.1435836783326338,-0.023445556586818506,-0.013548698096471239,0.03328209162433689,0.042906397735836405
15785562,-0.2884336113929748,-0.0520616695284843,0.4269995117187495,-0.09358806736728277,-0.06364410701433781,0.14410120174083693,-0.02355898532446765,-0.013625834754172617,0.03345674228084678,0.04312821311292066
15786769,0.1304533779621124,-0.3841792345046997,0.22354072570800732,-0.0934306101400825,-0.06410781135038499,0.1443710153967665,-0.02367175607090673,-0.013703212882472532,0.03363099809643068,0.043349441885046164
15787965,-0.0179523006081581,-0.4470122754573822,0.3587812805175776,-0.09345208109160985,-0.06464243803183202,0.14480011780826552,-0.023783524759892295,-0.013780525238358604,0.033804179037329365,0.043569271812107055
15789154,0.2381671816110611,-0.8694897294044495,0.37613529205322394,-0.0931689003126743,-0.06567626132009391,0.1452473426705168,-0.023894302582364066,-0.013858614313068195,0.033976878127764606,0.04378843607489217
15790371,0.1980737149715423,-0.8569231033325195,0.4880375289916987,-0.09292784460155394,-0.06671913673684958,0.1458412843432997,-0.02400739576924416,-0.01393981150247694,0.0341543669708104,0.044013568129867585
15791581,0.1537913680076599,-0.3943521976470947,0.3665604019165034,-0.09274175704626467,-0.06719630289600256,0.14628482242961868,-0.02411961329527014,-0.014021119028981103,0.03433137160595024,0.04423788648527497
15792783,0.0371014215052127,-0.2154276072978973,0.25764984130859325,-0.0926971611376154,-0.06745524687997463,0.14659451753887162,-0.024231035282957555,-0.014102200235730831,0.03450757821603197,0.044461084969984084
15793984,-0.2136323750019073,-0.4380361139774322,0.18584102630615185,-0.09295373361999269,-0.06798132825286153,0.1468177126114653,-0.024342672717035167,-0.014183845810962518,0.03468390628887834,0.04468467916919111
15795190,-0.2459465116262436,0.0610378198325634,0.29894012451172003,-0.09325034511301394,-0.06790771664214346,0.14717823440162645,-0.02445513263324146,-0.014265742517232944,0.0348614032395667,0.04490971339820697
15796419,-0.2543242573738098,-0.2531274259090423,0.2953495407104487,-0.09356290962532636,-0.06821881024858567,0.14754121898715958,-0.024570121449170985,-0.014349583435028455,0.03504273139770192,0.045139721272924795
15797655,-0.2633003890514374,-0.0718092024326324,0.363568725585937,-0.09388834890619394,-0.0683075664227924,0.1479905899319838,-0.02468616744841904,-0.014434011587127026,0.035225647766857854,0.04537172924171437
15798877,-0.2447496950626373,-0.3357080221176147,0.2785944366455073,-0.09418743303356047,-0.06871780162582013,0.14833103233356462,-0.02480126449158605,-0.014517984740713778,0.03540690828836947,0.045601795533226665
15800067,-0.2297894358634948,-0.3225429952144623,0.24687904357910107,-0.09446088246223804,-0.06910162779012534,0.14862481839542374,-0.024913672941716113,-0.014600215677784027,0.035583771822260024,0.04582643575910388
15801286,-0.0323141403496265,-0.4763343632221222,0.37613529205322394,-0.09450027339932424,-0.06968227937889311,0.14908332731643661,-0.025028868774989887,-0.014685158376346897,0.03576550439825876,0.0460572410545391
15802484,-0.1765309572219848,-0.3195509314537048,0.29594844818115185,-0.09471175748607617,-0.07006510139477465,0.14943787355735763,-0.025142333460458206,-0.014769096367817836,0.03594453097078048,0.04628468911063531
15803670,-0.1256660968065261,-0.3261334598064422,0.2732090377807612,-0.09486079747688872,-0.07045189567810509,0.1497618994761656,-0.025254838366265797,-0.014852652316092068,0.036122148583559215,0.046510404857640776
15804728,-0.4894993901252746,-0.2680876851081848,0.3240732574462868,-0.09537868783164126,-0.07073553244894955,0.1501047689825438,-0.025355749017991674,-0.014927490509423057,0.036280959429142744,0.04671243943824175
15805693,-0.4691534340381622,-0.0616362318396568,0.336041870117187,-0.09583142089548809,-0.07079501141267482,0.1504290493872069,-0.02544822633915582,-0.014995807695436288,0.0364261234618014,0.046897216790570934
15806659,-0.5804576873779297,0.243552878499031,0.18823474884033153,-0.09639214302149517,-0.07055973933204475,0.15061088415458665,-0.025541341149314584,-0.015063968403631044,0.03657161357589473,0.04708254635547904
15807857,-0.4978771209716797,0.0568489506840705,0.37314266204833935,-0.09698859981241924,-0.07049163428912524,0.15105790906372055,-0.025657533491889862,-0.015148417381509417,0.036752580950953066,0.04731316709551607
15809057,-0.2758670151233673,-0.0879662707448005,0.21157211303710888,-0.09731964023056727,-0.070597193814019,0.15131179559936508,-0.025774317060166543,-0.01523313401408624,0.03693415510567231,0.047544669576924846
15810274,-0.4248711168766022,-0.1244692802429199,0.267224731445312,-0.0978367083798061,-0.07074867292807463,0.15163700809753403,-0.025893384334264767,-0.015319235149039706,0.037118697344527,0.047780163356649565
15811344,-0.3895649015903473,-0.0149602498859167,0.28577560424804815,-0.09825354282450777,-0.07076468039545256,0.15194278799407943,-0.02599851562508699,-0.01539495335706284,0.03728127612768067,0.04798771669169523
15812507,-0.3781951367855072,0.0119682000949978,0.30193275451660107,-0.09869338376858931,-0.07075076137874207,0.15229393578758224,-0.02611329603040986,-0.015477236492546318,0.03745839397500163,0.048213902125885486
15813632,-0.0311173200607299,-0.2674892842769623,0.18045467376708935,-0.09872839075365764,-0.07105168682355366,0.15249694729557023,-0.026224365470007723,-0.015557169640222817,0.037629953040709145,0.04843300772577705
15814662,-0.0347077809274196,-0.2375687658786773,0.36177295684814403,-0.09876413976801288,-0.0712963826524087,0.1528695734411238,-0.026326092533968778,-0.015630604914354796,0.037787408701353505,0.04863401293805463
15815891,-0.111304260790348,-0.2154276072978973,0.3869060897827161,-0.09890093270452421,-0.07156114318177782,0.15334508102546676,-0.026447641780262637,-0.0157185535593252,0.0379758698059338,0.048874506332562614
15817130,-0.3722110390663147,-0.1729404926300048,0.4293932342529292,-0.09936210218192738,-0.0717754164521464,0.15387709924270615,-0.026570751424866045,-0.01580748330030941,0.038166523531895515,0.04911786719801987
15818324,-0.3668253421783447,0.1029265224933624,0.13796752929687628,-0.09980009164048832,-0.07165252218428933,0.15404183247268663,-0.02668991273428479,-0.015893036411797453,0.038350449479867904,0.04935278131431255
15819549,-0.2022625803947448,-0.1442168056964874,0.28816932678222784,-0.10004786330147189,-0.07182918777126752,0.15439483989799485,-0.026812471366829092,-0.015981027166817256,0.038539583158742945,0.049594367826934174
15820747,-0.4350440800189972,0.2202148884534835,0.3390335464477534,-0.10056904610933465,-0.07156537033490025,0.15480100208663927,-0.026932953084068074,-0.016066762480478468,0.03872503475924274,0.04983124657819911
15821944,-0.5565212965011597,0.0730060189962387,0.43657440185546825,-0.10123520210124654,-0.07147798213016175,0.15532358164566026,-0.027054131620983267,-0.01615232162508827,0.03891095708647259,0.05006881377695194
15823209,-0.227994218468666,-0.0963440090417862,0.2971453094482417,-0.10152361478760939,-0.07159985730159961,0.1556994704621123,-0.02718255899368959,-0.016242895444574794,0.03910791691660716,0.050320496136515305
15824408,-0.2543242573738098,-0.4320520162582397,0.10326045989990185,-0.1018285495722006,-0.07211788766909324,0.15582327975353227,-0.02730465142462666,-0.016329364791890035,0.03929474902903164,0.05055956334049541
15825598,0.0185507107526063,-0.3949505984783172,0.36177295684814403,-0.101806474226405,-0.07258787888128244,0.15625378957218156,-0.02742580112895608,-0.01641574436775876,0.03948069103862254,0.05079740343363844
15826831,-0.0526600815355777,-0.4236742854118347,0.28517669677734325,-0.10187140410693837,-0.07311026927519523,0.15660541243930803,-0.027551408570219937,-0.016505889329775075,0.039673785512160206,0.0510444292125484
15828043,-0.2860399782657623,-0.0771948918700218,0.4964155578613276,-0.10221808456059647,-0.0732038294841417,0.15720706809543597,-0.02767529688870738,-0.016594612371109853,0.03986432047869187,0.05128808111884613
15829282,-0.2686860859394073,-0.0759980678558349,0.34860843658447216,-0.1025509866210754,-0.07329799109021508,0.15763899394836414,-0.02780235756113089,-0.01668542858207063,0.040059635192193896,0.05153784031811977
15830450,-0.0867694541811943,-0.2728749513626098,0.48085731506347607,-0.10265233334355903,-0.07361670903340661,0.15820063529235828,-0.02792225548647617,-0.01677141289822165,0.04024441353421537,0.051773984420436694
15831629,-0.0903599113225936,-0.3638332784175873,0.31270355224609325,-0.10275886767900837,-0.07404566846866095,0.15856931278045644,-0.02804340819146972,-0.0168587127413462,0.04043136675398353,0.05201292489260476
15832845,-0.4344456791877746,0.0933519601821899,0.3575844192504878,-0.10328715362490071,-0.07393215248507941,0.15900413543426503,-0.0281690053702776,-0.016948614238768058,0.0406247157826716,0.052260079607556534
15834053,-0.1041233390569686,-0.3829824030399322,0.22174495697021612,-0.10341293461848153,-0.07439479522795164,0.15927200334228506,-0.028293928195296726,-0.017038483151403425,0.04081711636270908,0.05250612601390621
15835231,0.3692189753055572,-0.5690879225730896,0.29355472564697216,-0.10297799466557159,-0.07506518080074275,0.15961781080909718,-0.02841523627301277,-0.0171269099343867,0.041005146143842194,0.05274636202269869
15836409,-0.0538569018244743,-0.0945487841963768,0.23012298583984325,-0.10304143809592081,-0.07517655926852608,0.1598888956864165,-0.02853661908708976,-0.017215467921205024,0.041193495262960796,0.05298693250837671
15837631,-0.0496680289506912,-0.1687516272068023,0.2642321014404292,-0.10310213242729856,-0.07538277375697279,0.1602117873143767,-0.02866260989291592,-0.017307585670736043,0.041389274067058966,0.05323692079207314
15838844,0.1669563949108123,-0.4410281777381897,0.3414272689819331,-0.10289961432027174,-0.07591774093656921,0.1606259385916518,-0.02878742712508641,-0.0173996738904921,0.04158411333057064,0.05348554097573826
15840063,-0.5385690331459045,0.0532584898173809,0.29295581817626903,-0.1035561299716766,-0.07585281883748182,0.16098305173400868,-0.028913662047521885,-0.01749213847665499,0.041780351670634396,0.053736138186574814
15841285,-0.5044596195220947,0.1825150549411773,0.26602787017822394,-0.1041725796267326,-0.0756297854403437,0.16130813779136646,-0.029040960939825753,-0.017584558074463092,0.041977470215015446,0.05398798107574647
15842511,-0.5349785685539246,0.1873023360967636,0.4180235290527339,-0.10482846335177971,-0.07540015277628906,0.16182063463798513,-0.029169480635895036,-0.01767699866176682,0.04217586231308162,0.05424148084361248
15843569,-0.2914256751537323,-0.1214772313833236,0.5227455520629878,-0.10513679171609236,-0.07552867568709261,0.16237369943206778,-0.029280715361530662,-0.017756908000643765,0.042347653687080745,0.05446092036155125
15844545,0.4069187939167022,-0.6157639026641846,0.31808895111083935,-0.10473963897322966,-0.07612966125609286,0.16268415424835195,-0.029382941249168536,-0.017831210550029713,0.04250643342162714,0.05466357277345492
15845555,0.5672926902770996,-0.7492093443870544,0.4892343902587868,-0.10416667335604979,-0.07688636269392378,0.16317828098251333,-0.029488149589258147,-0.017908865776350577,0.04267124348541948,0.05487361351492866
15846540,0.3698173761367798,-0.7372411489486694,0.3665604019165034,-0.10380240324055506,-0.07761254522563822,0.1635393429784011,-0.029590394956450095,-0.01798531413339783,0.042832329738253204,0.055078775122202536
15847509,0.3075827360153198,-0.4912946224212646,0.3665604019165034,-0.10350435556935622,-0.07808860971476443,0.1638945400078582,-0.0296906906769968,-0.018060981996211437,0.042991143547520816,0.05528087017285563
15848552,-0.0712107941508293,-0.3638332784175873,0.22174495697021612,-0.10357862842765554,-0.07846808782415397,0.16412581999797812,-0.029798723186446847,-0.018142824211812028,0.04316232677777871,0.055498760587917195
15849558,-0.2040578126907348,-0.1310517936944961,0.2420915985107417,-0.10378391058722242,-0.07859992592861063,0.16436936414607992,-0.029903129800497592,-0.018221895737296212,0.043327682358109666,0.05570926955769164
15850529,-0.5002707839012146,-0.0873678624629974,0.21276897430419872,-0.10426967351839049,-0.0786847601230622,0.1645759628201293,-0.03000437565348395,-0.018298298639375706,0.04348748561800801,0.05591289383342283
15851499,-0.2680876851081848,-0.1765309572219848,0.16429752349853466,-0.10452971857294543,-0.07885599515156753,0.16473533141792288,-0.030105769480499707,-0.018374788954672726,0.043647278889483394,0.05611662124182187
15852803,-0.1669563949108123,-0.2363719493150711,0.314499320983888,-0.10474742971190913,-0.07916422417347439,0.16514543853248587,-0.030242360128844036,-0.018478019102994937,0.04386262854132975,0.056391202493722516
15854009,-0.2100419104099273,-0.4506027400493622,0.27979129791259716,-0.1050007402558635,-0.07970765107797392,0.16548286683776847,-0.030368991021592608,-0.018574146530194974,0.0440622008787361,0.05664584787319207
15855208,-0.4063203930854797,-0.1956800669431686,0.239697875976562,-0.10548791840717299,-0.07994227147823878,0.16577026459106436,-0.03049547103576281,-0.01866999731369738,0.04426095942598079,0.05689969316872309
15856387,0.0945487841963768,-0.5343801379203796,0.363568725585937,-0.10537644539060546,-0.0805723056608469,0.1661989121185302,-0.030619709864878334,-0.01876499206207152,0.04445690794336853,0.05714987509333751
15857606,0.3871712684631347,-0.7360442876815796,0.3683561706542964,-0.1049044836143489,-0.08146954364753074,0.16664793829055777,-0.030747588430404225,-0.01886430343577786,0.044660051780144726,0.05740902684602689
15858797,0.1908927857875824,-0.6600462198257446,0.3659624481201149,-0.1046771303064759,-0.08225565869534321,0.16708379956626881,-0.030872258892599237,-0.018962269925284013,0.04485904858542815,0.057662798144391215
15860003,0.2124355584383011,-0.7031317353248596,0.294751586914062,-0.1044209330229993,-0.08310363556814498,0.16743926998008718,-0.030998190537824974,-0.019062492909779197,0.045060980345024135,0.057920276261507385
15861198,0.0257316306233406,-0.3554555475711822,0.40844959259033153,-0.10439018372440441,-0.08352840494749254,0.16792736724323262,-0.031122936807375635,-0.01916230935369145,0.045261653548879795,0.05817601376221381
15862392,-0.2866383790969848,-0.1615706980228424,0.31569618225097607,-0.1047324299490462,-0.08372132036093181,0.1683043084848403,-0.031247987328734798,-0.019262272610202403,0.045462608893210694,0.05843218860853634
15863611,-0.5403642654418945,-0.1346422582864761,0.1690849685668958,-0.10539113398861988,-0.08388544927378302,0.16851042306152333,-0.03137645912106692,-0.019364528972867143,0.04566802309892269,0.05869442480407088
15864810,-0.6235432028770447,-0.1035249307751655,0.267224731445312,-0.10613876228886945,-0.08400957566578245,0.16883082551452627,-0.031503719497051275,-0.01946525645409042,0.04587045125871461,0.058953192022574236
15865868,-0.3704158067703247,-0.2094435095787048,0.2420915985107417,-0.10653066221243246,-0.08423116689891672,0.16908695842575064,-0.031616428937672025,-0.019554373028669473,0.046049345260729055,0.05918204357959474
15866833,-0.0909583196043968,-0.6163623332977295,0.23491043090820263,-0.1066184369908507,-0.08482595655054903,0.16931364699157705,-0.031719315729368196,-0.019636230076740754,0.046212732930075925,0.05939118795606438
15867795,0.2902288436889648,-0.5654974579811096,0.43956703186035107,-0.10633923684322193,-0.08536996510512686,0.1697365104762267,-0.03182161407521138,-0.019718355983171884,0.04637601945315405,0.05960003242742494
15868757,0.2369703650474548,-0.4045251607894897,0.39588302612304815,-0.10611127135204627,-0.08575911830980634,0.17011734994735708,-0.03192369311825204,-0.019800856254985916,0.046539672343803414,0.0598091731476663
15869908,0.2453480958938598,-0.3734078407287597,0.4054569625854487,-0.10582887569367244,-0.08618891073448515,0.17058403091129293,-0.03204550215417546,-0.01990005969124131,0.04673601456338231,0.0600598171933358
15870967,0.2878352105617523,-0.6367082595825195,0.4096464538574214,-0.10552405820568754,-0.08686318478138304,0.17101784650592794,-0.032157252131815285,-0.019992047803924794,0.04691712246283209,0.060290855195924496
15872114,0.0951471924781799,-0.2866383790969848,0.267224731445312,-0.10541492437591507,-0.08719195900220728,0.17132435327289572,-0.03227816305007446,-0.020092056980900327,0.047113631496036104,0.06054143074255202
15873340,-0.2806542813777923,-0.1340438425540924,0.4329838180541987,-0.10575900652488425,-0.08735629675317859,0.17185519143383016,-0.03240782359207397,-0.020199155800719723,0.04732432596073398,0.060810071145119826
15874554,-0.8216169476509094,0.1651611626148224,0.12540096282958935,-0.10675644949933245,-0.08715579110176419,0.1720074282027053,-0.03253742592176616,-0.020304962931117266,0.047533142978572064,0.061076798267998965
15875754,-0.3135668337345123,-0.0652266889810562,0.2139658355712868,-0.10713272969981387,-0.08723406312854146,0.17226418720539083,-0.03266598519740593,-0.020409643806871516,0.04773986000321853,0.06134096822163322
15876945,-0.3010002374649048,-0.1549881845712661,0.2869724655151362,-0.10749122098263457,-0.08741865405636583,0.17260597141181935,-0.03279400724159625,-0.020513759423852647,0.04794543371517001,0.061603781140424585
15877999,-0.2495369762182235,-0.1077138036489486,0.28757041931152294,-0.10775423295556857,-0.08753218440541181,0.1729090706337737,-0.03290758020313142,-0.020606018346215952,0.04812767987561801,0.061836804551335625
15878972,-0.2956145405769348,-0.1741373091936111,0.418622436523437,-0.10804186590354993,-0.0877016200072572,0.173316390264511,-0.033012704938655574,-0.02069135202248301,0.048296316723345376,0.06205243705872265
15880116,-0.0771948918700218,-0.2202148884534835,0.28457874298095476,-0.10813017685984924,-0.08795354583964798,0.17364194834648122,-0.033136405860983244,-0.02079197087892357,0.04849496311225375,0.0623064113368172
15881111,0.3590460121631622,-0.5050580501556396,0.3629698181152339,-0.1077729260777469,-0.08845607859955285,0.1740031033155059,-0.0332436399224306,-0.020879984677130124,0.04866809620005268,0.06252756946457291
15882088,-0.0466759800910949,-0.2094435095787048,0.267224731445312,-0.1078185285102959,-0.08866070490841124,0.17426418187812795,-0.03334897862478516,-0.020966606185825642,0.04883835230574761,0.06274502056903163
15883056,-0.3321175575256347,-0.0867694541811943,0.37015098571777116,-0.10814001830598072,-0.08874469774005864,0.17462248803230276,-0.033453658162505354,-0.021052511053238018,0.04900738687416288,0.06296093578032605
15884022,-0.1268629282712936,-0.0059841000474989,0.19661182403564403,-0.10826256789469078,-0.08875047838070452,0.17481241505432119,-0.033558239803091625,-0.021138244015353778,0.04917625566710535,0.06317661703645547
15884975,-0.2058530449867248,0.0221411697566509,0.18045467376708935,-0.10845874584656313,-0.08872937784592642,0.17498438835842123,-0.0336616009878834,-0.021222803112440947,0.04934301578921093,0.06338962028748259
15886252,-0.0155586600303649,-0.3291254937648773,0.3749384307861323,-0.1084786142554219,-0.08914967110146417,0.17546318473453512,-0.03380012817828757,-0.021336647242437518,0.04956708227611693,0.06367571613876229
15887457,-0.5714815855026245,0.0065825101919472,0.33963245391845476,-0.10916724956595257,-0.08914173917668287,0.17587244184150685,-0.033931674714014544,-0.02144406303814542,0.04977900856853595,0.06394650954155374
15888645,-1.171686768531799,0.5511355996131897,0.28816932678222784,-0.11055921344696835,-0.08848699008434241,0.17621478700172413,-0.03406301905958954,-0.02154918558236562,0.04998835173549399,0.06421442186883457
15889828,-0.4906961917877197,0.0927535519003868,0.24747699737548778,-0.11113970704185323,-0.08837726263244425,0.17650755228961934,-0.03419449733302005,-0.0216537358840598,0.05019716016985261,0.06448180219808045
15891027,0.2250021696090698,-0.3518650829792022,0.2995390319824214,-0.11086992944049195,-0.08879914886693631,0.17686669958896625,-0.034327430378419205,-0.02176020606355126,0.05040922334265978,0.06475313770253598
15892223,0.4553900063037872,-0.4129028916358948,0.42879528045654425,-0.11032528299295262,-0.08929298072533284,0.17737953874439227,-0.03445937941687877,-0.021867000468498758,0.05062136927099807,0.0650241306451419
15893467,0.0897615030407905,-0.3219445943832397,0.5065884017944331,-0.11021361968316988,-0.08969347980074559,0.17800973471622455,-0.034596485159764635,-0.021978579157370885,0.05084281338098506,0.0653067102193971
15894651,-0.2004673480987548,-0.2250021696090698,0.3659624481201149,-0.11045097302331881,-0.08995988236956273,0.17844303425479877,-0.03472725911182425,-0.022085091658096447,0.05105408993354274,0.06557632116784663
15895847,-0.2704813182353973,-0.0993360579013824,0.2720121765136714,-0.11077446867992835,-0.09007868829481279,0.17876836081790912,-0.03485974537636544,-0.022192825769297042,0.05126789689308096,0.06584922638247914
15897063,-0.6785969734191895,-0.0484712123870849,0.1212124252319331,-0.11159964259960609,-0.09013762928907548,0.17891575512699115,-0.034995450541766566,-0.022302433126512557,0.05148545845131538,0.06612739609213353
15898270,-0.6594478487968445,0.0502664409577846,0.22114700317382763,-0.11239559615310388,-0.09007695769483944,0.17918267955982195,-0.035131112026323366,-0.022411156014450227,0.05170173194554408,0.06640424709518966
15899481,-0.3997378945350647,-0.1346422582864761,0.24747699737548778,-0.11287967874338584,-0.09024000946962436,0.17948237420364366,-0.03526780931728161,-0.022520436665917944,0.05191908510070469,0.06668268020526749
15900678,-0.3578491806983948,0.1472088545560836,0.19780868530273388,-0.11330802421268181,-0.09006380047072073,0.17971915119995102,-0.035403439022264185,-0.022628243035081395,0.05213420892469103,0.06695832000327682
15901872,-0.1591770648956298,-0.1914912015199661,0.5101789855957026,-0.11349808162816719,-0.09029244096533556,0.1803283049087523,-0.03553895573172822,-0.022736052209594005,0.05234952092075208,0.06723405227421134
15903157,0.3775967061519623,-0.5738751888275146,0.267224731445312,-0.11301286986076191,-0.09102987058297891,0.18067168868865952,-0.035684177269499295,-0.022853025593293132,0.05258168404071701,0.0675311393560523
15904363,0.2662924528121948,-0.4547916054725647,0.3964809799194331,-0.1126917211626704,-0.09157834925917882,0.18114984475044235,-0.03582008348522148,-0.022963469082499702,0.05280015075348604,0.06781043586928201
15905550,0.2501353919506073,-0.5852450132369995,0.3551906967163081,-0.11239481045242503,-0.09227303508989114,0.1815714561074446,-0.0359534961252285,-0.0230729971751514,0.05301567607188558,0.06808582078252759
15906760,0.2040578126907348,-0.4392329454421997,0.39827674865722784,-0.11214790049906924,-0.0928045069538762,0.18205337097331983,-0.036089195084832375,-0.023185290628565593,0.053235960650763296,0.06836706231667233
15907801,-0.1220756396651268,-0.2740717828273773,0.22054809570312273,-0.11227498123996063,-0.0930898156797995,0.18228296154094678,-0.03620607334030317,-0.023282197126688265,0.05342571721372742,0.06860938499630027
15908763,-0.5206167101860046,0.1388311237096786,0.3001369857788081,-0.11277581451515957,-0.09295626013879078,0.182571693321266,-0.036314563673866755,-0.023371621048941783,0.053601351182702484,0.06883374938131775
15910024,-0.8934261202812195,0.1573818325996399,0.1319841766357417,-0.1139024248528342,-0.09275780164788264,0.18273812536800366,-0.036458194631606176,-0.023488588636819765,0.05383178395879153,0.06912868229708868
15911349,-0.3518650829792022,-0.008976150304079,0.3300575637817378,-0.11436864608778163,-0.09276969504703554,0.18317545164001445,-0.036609733087672486,-0.023611508482757088,0.05407449143221455,0.06943937293232548
15912531,0.0700139701366424,-0.3578491806983948,0.17147869110107372,-0.11428588957508012,-0.09319267277862105,0.1833781394528959,-0.03674481900915023,-0.023721662221981417,0.054291244393047874,0.06971684301755667
15913576,-0.2549226582050323,-0.1208788231015205,0.39468616485595476,-0.11455228375290438,-0.09331899114876213,0.18379058649517038,-0.03686452614567201,-0.023819180567731874,0.05448330555593533,0.06996268459089149
15914540,0.0873678624629974,-0.2226085215806961,0.3216795349121089,-0.11446806113349005,-0.09353358576356592,0.18410068556682566,-0.036974873356604696,-0.023909346944407953,0.05466077861682175,0.07018973464860957
15915510,0.2686860859394073,-0.2662924528121948,0.3162941360473628,-0.11420743563012882,-0.09379188944279375,0.1844074908787916,-0.03708565456916592,-0.024000325077167463,0.054839653882974175,0.07041838550149822
15916473,-0.0771948918700218,-0.3746046721935272,0.26303524017333935,-0.11428177431099965,-0.09415263374211612,0.18466079381507852,-0.03719570791782741,-0.02409099406346112,0.0550174822274181,0.07064573612836314
15917442,0.0371014215052127,-0.2238053381443023,0.37015098571777116,-0.1142458230335611,-0.09436950111477795,0.18501947012023903,-0.03730641212034693,-0.024182438110041338,0.05519676609396461,0.07087483111423257
15918708,-0.0604394115507602,-0.1579802483320236,0.36476558685302685,-0.11432233932858436,-0.09456950410916629,0.18548126335319495,-0.03745114420193692,-0.02430216310224354,0.05543158537336975,0.07117474264433626
15919917,-0.2764654159545898,-0.3781951367855072,0.3115066909790034,-0.11465658601647347,-0.09502674202953997,0.18585787494258857,-0.037589764014430836,-0.024417050433357256,0.05565628754417534,0.07146191330859844
15921110,-0.2351751327514648,-0.1968768984079361,0.20977729797363232,-0.11493714994984597,-0.09526161616934063,0.1861081392590711,-0.037726884034321,-0.02453069754144728,0.055878314554311415,0.07174579387141551
15922279,-0.5194199085235596,-0.3117716014385223,0.22952503204345476,-0.11554435182291001,-0.09562607717142227,0.1863764540215299,-0.03786195538160198,-0.024642484425660673,0.056096188629062585,0.0720247324375087
15923473,-0.1639643460512161,0.0191491208970546,0.21336788177490185,-0.11574012525209516,-0.09560321312107119,0.18663121527236914,-0.038000149091152985,-0.02475663466212723,0.056319026300097795,0.0723099924915983
15924671,0.1178867742419242,-0.2974097728729248,0.2756018066406227,-0.11559889689655334,-0.09595951002897295,0.18696138623672462,-0.03813863656963506,-0.02487159415514194,0.05654300604080939,0.0725965793088063
15925877,0.3387000560760498,-0.4589804708957672,0.4652981185913081,-0.11519042462892562,-0.09651304047687324,0.18752253576774575,-0.03827755622173754,-0.02498798888195705,0.05676915821894529,0.07288558309817335
15927053,0.3129684329032898,-0.3638332784175873,0.4240078353881831,-0.11482237375183135,-0.09694090841229233,0.18802116898216226,-0.038412587333269695,-0.025101991390249906,0.05699027111366831,0.07316780602834602
15928248,0.0843758136034011,-0.3123700320720672,0.45572322845458935,-0.11472154465457529,-0.09731419060061845,0.1885657582401655,-0.03854967957913191,-0.025218281848017644,0.05721560719476531,0.07345519206758278
15929456,-0.1436184048652649,-0.078391708433628,0.37015098571777116,-0.11489503568765252,-0.09740888778440628,0.18901290063091256,-0.0386884727822426,-0.025335951784461207,0.05744393477872745,0.07374628141072309
15930668,-0.4021315276622772,0.0251332204788923,0.3270658874511714,-0.1153824190991792,-0.09737842632118586,0.18940930448650337,-0.038828316274190804,-0.025453974437162484,0.057673498855765094,0.07403901288916707
15931841,-0.7881059646606445,0.3375032544136047,0.25166553497314403,-0.11630686739572614,-0.0969825350037587,0.18970450815902687,-0.03896474422964599,-0.025567734950721892,0.05789602224383563,0.07432300959360302
15933054,-0.6343145966529846,-0.1693500280380249,0.23850101470947216,-0.11707629100146622,-0.09718795658776883,0.18999380988986947,-0.03910675777063077,-0.025685623942062856,0.05812648473523204,0.07461754490935109
15934255,-0.243552878499031,-0.1956800669431686,0.042820396423339346,-0.11736879800854355,-0.09742296834816758,0.1900452371859739,-0.03924771769703903,-0.025802628927049005,0.0583547290650924,0.07490950145498097
