,time_micros,accel_x,accel_y,accel_z,velocity_x,velocity_y,velocity_z,distance_x,distance_y,distance_z,distance_total
0,17408024,0.0077793300151824,-0.062833048403263,10.116719245910645,0.0,0.0,0.0,0.0,0.0,0.0,0.0
1,17409223,0.007797750590855876,-0.06283817818449176,10.116715515156438,9.349502958436196e-06,-7.534297564320563e-05,0.012129941902672569,1.1210054047164998e-08,-9.033622779620354e-08,1.4543800341304409e-05,1.4544085212452878e-05
2,17410389,0.007960626481589139,-0.06288205435865167,10.116684022164712,1.8631593435969132e-05,-0.00014866345102539346,0.02392599547251662,3.2934491993505005e-08,-2.636778116918123e-07,4.244151106225879e-05,4.244234291267362e-05
3,17411577,0.008656980402388994,-0.06306181791647836,10.116559128838139,2.8916086154007257e-05,-0.00022358089071016976,0.03594446771757633,6.728680234446562e-08,-5.29291909855494e-07,8.514353871073948e-05,8.51452104444331e-05
4,17412747,0.01060886451855684,-0.06354707844953365,10.116245600979159,4.132845764071876e-05,-0.0002979309724961241,0.047780475070721945,1.1564109778410658e-07,-8.778711476759592e-07,0.00014104669454348414,0.00014104947384608826
5,17413928,0.01472108427139632,-0.06455409599413954,10.115676874215769,5.871405816523781e-05,-0.0003741693598652029,0.05972708945917077,1.8498240047725243e-07,-1.3197651616767639e-06,0.00021158438719476482,0.0002115885840567837
6,17415105,0.021791727722252754,-0.06631518440598809,10.114861602085684,8.43629216943293e-05,-0.0004522223319110509,0.07163228156482562,2.8427755931147804e-07,-1.8520308463360708e-06,0.0002958955825965646,0.00029590151508930617
7,17416296,0.03227209614882647,-0.06903883254142164,10.113857718271642,0.00012279898820758163,-0.0005344475814678841,0.08367788610728714,4.305311542667078e-07,-2.488557915864321e-06,0.0003955559449503436,0.00039556400728976167
8,17417471,0.046171050940252686,-0.07284261494251354,10.1127017979047,0.00017704997306237854,-0.0006200376540253375,0.09556031071982517,6.385648726150026e-07,-3.2171021593440927e-06,0.0005078393100461381,0.0005078499013877405
9,17418682,0.06307163266781261,-0.07768661526633396,10.111371487785965,0.0002534297202230996,-0.0007141161451128679,0.10780518159153397,9.454682638051762e-07,-4.081896811075776e-06,0.0006383913849534857,0.0006384051348279114
10,17419844,0.08218557713295407,-0.08333770434015898,10.109823435105602,0.0003489293608515922,-0.0008109545575561327,0.11955279642312669,1.3509241811147264e-06,-5.024226006956002e-06,0.0007773117343971589,0.0007773291453912115
11,17421028,0.10244587727772803,-0.08938168997106033,10.108101420676494,0.0004702252795484222,-0.0009167824784818682,0.13152078850520765,1.907670912100058e-06,-6.109696461478534e-06,0.0009330323479873248,0.0009330543017369893
12,17422201,0.12266584765050682,-0.09530398056938164,10.106425464998342,0.0006141123188424667,-0.0010285740476897527,0.1433756255756507,2.6280246621022716e-06,-7.316213819418614e-06,0.0011012119567875632,0.001101239395985346
13,17423390,0.14169122192033243,-0.1005981336547353,10.105122725761392,0.000782583181705742,-0.001148185228605233,0.155390616496581,3.558516065150399e-06,-8.681406056230236e-06,0.001285971399801998,0.0012860056263315528
14,17424567,0.15848374571787435,-0.10482503952398431,10.104413312454303,0.0009691185504156802,-0.0012715643001249624,0.16728351096533972,4.699168598989654e-06,-1.0178037237477316e-05,0.0014828640922082028,0.0014829064672419454
15,17425756,0.17218965733345207,-0.10764009761545029,10.104241866952917,0.0011738520529851546,-0.0013995483761897328,0.17929745454514673,6.094878689989003e-06,-1.1842100256766908e-05,0.0016960487656623824,0.0016961010578351832
16,17426892,0.18223143963171468,-0.10885133392423525,10.10429794882899,0.0013808669684067826,-0.0015232034915276642,0.19077593701501647,7.663543566099108e-06,-1.3572459423142335e-05,0.001912770230111441,0.0019128337342161647
17,17428089,0.18839469185879673,-0.10847831810113703,10.104201513460508,0.0016063754145617623,-0.0016530520382947252,0.2028706662266287,9.586374937329538e-06,-1.555116271298112e-05,0.0021556064175847155,0.002155683827646943
18,17429277,0.19086391027088184,-0.10674318331848962,10.103714229823057,0.0018331217399635699,-0.001779862940077091,0.21487387873165847,1.176412356440626e-05,-1.7665639885792703e-05,0.002410876585517926,0.002410970008115901
19,17430464,0.19016685353464816,-0.10399883616926582,10.102824779276183,0.002058849795109197,-0.0019033095586100095,0.2268659317446593,1.4207978271200876e-05,-1.9924868331862784e-05,0.0026801664464988365,0.0026802781661541767
20,17431623,0.18704465119314265,-0.10064229962243257,10.101682918752465,0.0022756345458420494,-0.002019953983872409,0.2385737822474934,1.684543870983181e-05,-2.2265994999170907e-05,0.0029566734601236813,0.0029568052849550932
21,17432806,0.18230840870421786,-0.09705467147455721,10.100496717662754,0.002491305393339139,-0.00213476966022681,0.25052266986448846,1.979265299015201e-05,-2.4791427507219224e-05,0.003253041778573371,0.0032531964553549537
22,17433954,0.1767236040343428,-0.0935932215811702,10.099466813541543,0.0026941840907705648,-0.0022422146786019934,0.2621168577664341,2.288557632635662e-05,-2.7365489958254313e-05,0.003553951931289237,0.0035541309696688083
23,17435141,0.17094846689094695,-0.09059953417473575,10.098743926860019,0.002897099920970119,-0.0023497563256674047,0.27410406680761695,2.632443393254815e-05,-3.015465071682152e-05,0.0038793134585898784,0.003879519968859329
24,17436338,0.1655205438365816,-0.08836180694687458,10.098414935157814,0.003095228011942507,-0.0024555254085828135,0.28619186948500086,3.002942186284333e-05,-3.309391463089515e-05,0.004221885126363425,0.004222121622309301
25,17437535,0.16085774289047539,-0.08705388929598395,10.098509454212044,0.003287774730182406,-0.0025597289140701063,0.2982797853016927,3.396488821487167e-05,-3.6157910141037066e-05,0.004578926029369551,0.0045791947535058185
26,17438700,0.15726407967568082,-0.08671541796115263,10.09898812559571,0.0034709873830045743,-0.002660752375994849,0.3100451064680117,3.8008588516072e-05,-3.925768665907107e-05,0.004940128578404784,0.0049404307696732765
27,17439904,0.1549206653376321,-0.08725995270609677,10.099736149081389,0.0036575118640710834,-0.00276581335905299,0.32220518879150567,4.241223280041359e-05,-4.258772594337087e-05,0.0053280636257097575,0.005328402622878976
28,17441123,0.15384089989272748,-0.0884676649824265,10.100605144039887,0.003845043921040318,-0.0028736554426665676,0.3345178264620903,4.709934134016174e-05,-4.609071192798142e-05,0.005735840856167046,0.005736219402093666
29,17442349,0.15384683108678315,-0.08999076187241585,10.101462733103485,0.004033660135952714,-0.0029839841167221496,0.34690221977287516,5.204460866683977e-05,-4.974907645508277e-05,0.006161142977608591,0.006161563632912921
30,17443515,0.15463617515274417,-0.09142857527310465,10.102181927276916,0.004213965916180814,-0.0030905898354905894,0.35868136390008004,5.6958092925106594e-05,-5.33527042032648e-05,0.006579365447916085,0.006579828298111394
31,17444701,0.15590006541590504,-0.09246324531597971,10.10259231032772,0.004398863393764077,-0.003200251244435341,0.3706630383801287,6.217514491011079e-05,-5.7148202179165115e-05,0.007018971811434917,0.0070194798208538835
32,17445753,0.15738618987629227,-0.0929709837453632,10.102480763133466,0.004564433665513937,-0.0032980567193354633,0.3812908481429451,6.697692912623144e-05,-6.0617757847906025e-05,0.007420089783681296,0.007420639650292502
33,17447028,0.15887182593577828,-0.09303270038168417,10.101677469973648,0.004766995243582054,-0.0034166734123221108,0.3941704869171615,7.305484806179856e-05,-6.497401644861671e-05,0.007922657154500676,0.007923260378240737
34,17448243,0.16010976333119042,-0.09285437471918734,10.10017700291689,0.00496152860602945,-0.003529491477605923,0.4064422019757055,7.908310531812434e-05,-6.92623485939079e-05,0.008416484429901158,0.0084171409379461
35,17449422,0.1608281939672305,-0.09266444142074803,10.09820984171772,0.0051511450467168155,-0.003638742854040985,0.41834799137909073,8.515630532820347e-05,-7.355242641882223e-05,0.008909716711737107,0.008910427231012928
36,17450629,0.16081568184891148,-0.09264234692875659,10.096201533710044,0.005345249574708452,-0.003750562166783994,0.43053410663027875,9.160802156487657e-05,-7.807935495413051e-05,0.009429371378439853,0.009430139607016738
37,17451807,0.16004082328556962,-0.09288889536943837,10.094630892603835,0.005533777664538853,-0.0038599852855291925,0.44242558182176606,9.812681165370334e-05,-8.26264176204839e-05,0.009950548713825894,0.00995137556834613
38,17453004,0.1586865680286861,-0.09341974993620594,10.093891759664814,0.00572372548646919,-0.003971808726202831,0.4545079702580848,0.00010497811106100696,-8.738067266574868e-05,0.010494594754224821,0.010495483544894947
39,17454173,0.15704534511645146,-0.09416773833658026,10.094246415613307,0.005907311494910322,-0.004081890812318293,0.46630814431793677,0.00011188375819855712,-9.215240302534877e-05,0.01103970897493249,0.011040660500709952
40,17455351,0.15539646460281883,-0.0949869965455757,10.09580814655404,0.006090368530212443,-0.004193785494248981,0.4782010063145774,0.00011905821232714737,-9.709268233757407e-05,0.011603029760371062,0.011604046771145944
41,17456526,0.15399522591600018,-0.09565757856631213,10.09845256465142,0.006271312920663743,-0.004306183149064398,0.4900666880780428,0.00012642700500892727,-0.00010215244753772474,0.012178858118862762,0.012179942692374332
42,17457718,0.1531354388820045,-0.09591667016638036,10.101732075153164,0.006453850363811093,-0.004420515819902723,0.5021079527116254,0.0001341199946425901,-0.00010742170239504878,0.01277737079849502,0.01277852621069197
43,17458902,0.15316916140110484,-0.09554445321897242,10.104942329796723,0.006635202650910001,-0.004533640452513987,0.5140722044301048,0.00014197607458126752,-0.00011278953269082534,0.013386032288540264,0.013387260328920202
44,17460103,0.15442257421356387,-0.09446257629640725,10.107320897428286,0.006820664162540491,-0.0046470900066459715,0.5262110968279162,0.00015016769224047866,-0.00011837068778880714,0.014018011815830591,0.01401931586149219
45,17461312,0.15705074220220375,-0.09277256672913886,10.108261504849644,0.007010538509862956,-0.0047592520398215005,0.5384319849872794,0.00015864343329890298,-0.00012412462350495134,0.014668976085680211,0.014670359029803839
46,17462512,0.16093469323641735,-0.09074680428102087,10.107490359068553,0.007203660141746657,-0.004868148204958725,0.5505609734181617,0.00016728782546899897,-0.0001299664013509018,0.015329649253782005,0.015331112899134539
47,17463692,0.16567525742103206,-0.08881077788163516,10.105144061016231,0.007399156945503475,-0.004972944922859055,0.5624850434101608,0.00017601883066469307,-0.0001358344763598755,0.015993381605005994,0.015994926970669815
48,17464883,0.1706675922821079,-0.08746840749291497,10.101693977854403,0.007602422047911465,-0.0050771197961831166,0.5745161609377855,0.0001850733153237556,-0.0001418813260371296,0.016677630352682896,0.01667926067376647
49,17466074,0.17521715927785447,-0.08712764084696194,10.097794584816153,0.00781110568461139,-0.005180888816431848,0.5865426342883014,0.00019437634219412778,-0.0001480517646174999,0.017376202630120262,0.017377920454715215
50,17467272,0.17866859042063202,-0.08790402565281698,10.09416443884131,0.008025150655935308,-0.005286197839163923,0.5986354432860334,0.00020399047267993827,-0.0001543846296288183,0.01809336789117693,0.01809517638411635
51,17468330,0.18055019427051247,-0.08954435401966568,10.091487108560571,0.00821617276147351,-0.005380935765716729,0.6093122366468904,0.00021268318346157725,-0.0001600776596689466,0.01873802023754934,0.018739910923386508
52,17469308,0.18071923075977875,-0.09154106686957383,10.090289261107436,0.008392916169156574,-0.005470462929115172,0.6191805395442534,0.00022089145547501238,-0.00016542777241362124,0.019343578805223617,0.01934554730104279
53,17470461,0.17942827302163983,-0.09336321746421368,10.090837807407434,0.008599796967950525,-0.00557811071885141,0.6308152755361942,0.00023080702137905933,-0.0001718593340724569,0.02007090881791685,0.020072971585915176
54,17471670,0.17725429920714847,-0.09465252020677264,10.093104680658712,0.008814097415691967,-0.0056925456157813975,0.6430178390951106,0.00024146326515463092,-0.00017874162172193663,0.02084831738538284,0.020850481790054907
55,17472855,0.1749202372145559,-0.09529498716920141,10.09678274034715,0.009021377896791215,-0.005805470175576901,0.654982526642422,0.0002521535979623285,-0.00018562110387999525,0.021624471679454107,0.021626738358954723
56,17474080,0.17307286832993496,-0.09538391251168961,10.101345390465646,0.009233392160495384,-0.005922315468403721,0.6673566747457423,0.00026346450335893535,-0.0001928759403287898,0.02244198360601764,0.02244435882010561
57,17475275,0.1720964166388649,-0.09511556890487442,10.10618078322026,0.009439047378378827,-0.006035978573245046,0.6794335607816906,0.00027474416497609805,-0.00020008893472381765,0.02325390671115176,0.023256390460880558
58,17476483,0.1720521566711748,-0.09466658005932957,10.1107807931319,0.009646886383637606,-0.006150335801956716,0.691647383979794,0.0002863976037275323,-0.00020751854037258136,0.024089416750999352,0.024092012928257932
59,17477665,0.17275618673549692,-0.09414694980484589,10.114872221792199,0.009851084196358963,-0.006261617496626044,0.7036031629459524,0.0002980415852476286,-0.00021491977225359334,0.024921075689601467,0.02492378448032898
60,17478834,0.17389980243835204,-0.09366308234797423,10.118382827766522,0.010054373065409397,-0.006371109639890826,0.7154315524716114,0.00030979514736109216,-0.00022236759942262572,0.02575741517444078,0.025760237903620253
61,17480018,0.17513693578883613,-0.09339306582896026,10.121292556129896,0.010261735197383378,-0.0064816870298323144,0.7274151628580692,0.00032194504183479406,-0.00023004191686594718,0.026618674727264733,0.02662161550562624
62,17481227,0.17616502630820385,-0.09358211691573358,10.123537709305596,0.010474718714189996,-0.0065948278091834366,0.7396545199486196,0.00033460897676024974,-0.00023801506368724995,0.027512917041882613,0.027515981147169463
63,17482421,0.17680920898938363,-0.09446396839440363,10.125032445247099,0.01068582890972332,-0.006707617787446355,0.7517438086882446,0.0003473678564784594,-0.0002460239593254609,0.028410499149456377,0.028413687795454112
64,17483614,0.17701642397864603,-0.09615479154629786,10.125737875939242,0.010897009503529845,-0.006822330453761088,0.7638238139742402,0.0003603679888161705,-0.0002541629995567979,0.029321740959527644,0.029325056808390808
65,17484790,0.1767443204642521,-0.09856988058969532,10.12570572365494,0.011104860824395806,-0.00693824863333457,0.7757316439052584,0.00037342730514565995,-0.00026232237994959934,0.03023400137276023,0.030237445328455216
66,17486008,0.1759119386819493,-0.10140959641042394,10.125055894159507,0.011319121565710421,-0.007061765521762466,0.7880639619843447,0.00038721399521269526,-0.00027092361035510604,0.031193863278457162,0.03119744285219246
67,17487239,0.17448938738343422,-0.10421539171461236,10.123901168154736,0.011533918001579428,-0.0071900546689631535,0.8005264843223432,0.00040141224827263956,-0.00027977456765259967,0.032179311380657966,0.03218303103399541
68,17488393,0.17259338660594511,-0.10646049866420898,10.122286721357385,0.011733090769722688,-0.007312910084421651,0.8122076031987896,0.00041495223502089956,-0.00028821366589002227,0.03311659895474937,0.033120452575474586
69,17489702,0.17048216197097812,-0.10767090642689947,10.120185991857468,0.011956251919742698,-0.007453851300934462,0.825454926662131,0.00043060296878384273,-0.0002979707572429455,0.0341971194537501,0.03420112840862054
70,17490913,0.16846119440927831,-0.10756300725801582,10.117542924209632,0.012160258426172334,-0.0075841101027239195,0.8377072711433489,0.00044532904173793744,-0.0003071551145773441,0.0352115829591047,0.03521573848019857
71,17492097,0.16676649855888803,-0.10612257483850492,10.114326674912494,0.012357709960466057,-0.007709759231332709,0.8496826339264453,0.00045996057033112926,-0.00031628346950724205,0.036217607197673606,0.03622190870294278
72,17493281,0.16550957957401152,-0.10358791300597305,10.110581031799208,0.012553673302681687,-0.007832407320331781,0.8616535618680955,0.0004748241195215044,-0.00032555703977451487,0.03723780501492543,0.03724225513660836
73,17494457,0.16469136667016518,-0.10036761843628633,10.106486728967072,0.0127473503498858,-0.007950439639612854,0.8735387902613607,0.0004898150035329701,-0.0003349067567906996,0.038265086632272786,0.03826968691077537
74,17495648,0.16422464347326757,-0.0969201207950666,10.10240891524124,0.012942941900262461,-0.00806587150347978,0.8855707592794131,0.0005052300473361827,-0.000344513209751344,0.03931980140657457,0.03932455631542316
75,17496813,0.1639502295308997,-0.09364145949185429,10.098849692298971,0.01313394391766596,-0.00817496380378779,0.8973359191709414,0.0005205310920002635,-0.0003540370425827568,0.04036519775240872,0.040370106321835734
76,17497990,0.16364123849600107,-0.09080665305127018,10.096298443522727,0.013326549655375752,-0.008281843234429135,0.9092192624389676,0.0005362164409446408,-0.00036378477206967986,0.04143534882429938,0.04144041505129138
77,17499166,0.16299016851108894,-0.08855854786349712,10.095065899010962,0.013518226093544793,-0.008385988086716607,0.9210910599362044,0.0005521138748306495,-0.0003736466940596586,0.04251855191078436,0.042523778032682216
78,17500370,0.16165565842278248,-0.08693864000731619,10.095193330742735,0.013712859506285823,-0.008490662209285415,0.9332456727064187,0.0005686241576762176,-0.0003838694513596382,0.043642179700722886,0.04364757196246509
79,17501547,0.15940650478449667,-0.08594728838230638,10.096462854707946,0.013900480962417175,-0.008591822167711389,0.9451292094864099,0.0005849850237689825,-0.0003939820260510345,0.04475459678028839,0.044760153733885734
80,17502727,0.1562642390419137,-0.08558074485862543,10.0984763345992,0.014084872764486634,-0.008692807446644567,0.9570454115612369,0.0006016051736310768,-0.0004042395388380751,0.04588391036593065,0.045889634655970596
81,17503903,0.1525553427040655,-0.08582598797230716,10.100756932669238,0.014264277847506614,-0.0087937388085,0.968923901714056,0.0006183799643797446,-0.0004145809756768711,0.04702336487434638,0.04702925807698493
82,17505103,0.1488658130906028,-0.08664697813567467,10.102828719019707,0.014442916823215338,-0.00889771518226281,0.9810472961768796,0.0006357114645676031,-0.00042525823389558647,0.04820062162975863,0.048206689360780985
83,17506287,0.14590517362650002,-0.08797334350354205,10.104278234831652,0.014615668548789113,-0.009001875620971003,0.9930107616069203,0.0006530164161293694,-0.0004359164546308161,0.04937634637150123,0.049382588374786665
84,17507480,0.1443054242909647,-0.08968424127396382,10.104825323593394,0.014787824919968233,-0.009108868920810842,1.0050658182179673,0.0006706582912588915,-0.00044678333525334345,0.05057538989263526,0.05058180958293571
85,17508670,0.1444386215578085,-0.09160477183835729,10.104371193160395,0.014959706879622026,-0.009217878599298486,1.017090019937828,0.0006884603424456417,-0.00045775261078650863,0.05178572701636128,0.051792326050380214
86,17509862,0.14632865263348266,-0.0935150922586331,10.103006884996747,0.015134130633561137,-0.009329348589270777,1.0291328041447443,0.0007065002261608465,-0.0004688731943049194,0.05301245331890181,0.05301923416582558
87,17511052,0.14965212313677556,-0.09515719399380485,10.101007102516672,0.0153122166600939,-0.009442585650123405,1.041153002596739,0.0007247217639863583,-0.0004801098712285662,0.05425142539199193,0.05425838998889032
88,17512247,0.15382247694041307,-0.09625781642847553,10.098801068984168,0.015496034520037694,-0.009557613740755432,1.053221069874175,0.0007432395252378034,-0.0004915312196487689,0.05551002457049157,0.055517176042629755
89,17513431,0.15819330123007028,-0.09657373413303441,10.096913617549474,0.015683335388694097,-0.009671957041968946,1.0651758155973536,0.0007618085943380172,-0.0005029828167864601,0.05677119273615883,0.05677853175923522
90,17514627,0.16229564323189638,-0.09594076911574692,10.095862319621956,0.015877440977999445,-0.00978670220183138,1.0772504669316214,0.0007807980137477044,-0.0005146877126198504,0.05805958429460905,0.05806711528432085
91,17515812,0.16589438475895513,-0.0943227559046777,10.095977493235214,0.01607402582393881,-0.009898474667578422,1.0892142002611052,0.000799845734349072,-0.0005264174051009308,0.05935030312191846,0.05935802682996424
92,17516999,0.16884080722016095,-0.09185118978681849,10.09722299345193,0.01627443986210914,-0.010007502029855377,1.1011996039543326,0.0008191634944653955,-0.0005382963100103691,0.060657427051812256,0.06066534635435589
93,17518174,0.17096723636655345,-0.08883578508720613,10.099186190006217,0.01647532636483984,-0.010111884077332843,1.1130661477275898,0.0008385220029440823,-0.0005501777738012352,0.06196527977539217,0.06197339519805924
94,17519367,0.1721548221093835,-0.08571481213177645,10.101275686332706,0.016680707067616336,-0.010214141848206052,1.1251169696213847,0.0008584220864757486,-0.0005623632450261451,0.06330754432015048,0.06331586143096944
95,17520578,0.17242130070536635,-0.08292436284753957,10.10298281259805,0.016889509262770535,-0.010314563251614423,1.137351681807441,0.0008788752821929638,-0.0005748541811238502,0.0646848772068193,0.06469340166008042
96,17521778,0.17188662633961396,-0.08076187048273369,10.104037973762452,0.017095773214378072,-0.010411477496193703,1.149476527375956,0.0008993902100502175,-0.0005873479541192826,0.06606424903967045,0.06607298147915486
97,17522935,0.1706912230805658,-0.07935340058989152,10.104398096574537,0.017293262959482286,-0.010503289380676208,1.1611673159736926,0.0009193985152943384,-0.000599500259932725,0.06740771962425202,0.06741665490910503
98,17524136,0.1689908093916409,-0.0787139423824326,10.104153983100371,0.017496220921561646,-0.01059782482547751,1.1733024049073961,0.000940411476621134,-0.0006122282475481234,0.0688168558125458,0.06882600410525934
99,17525328,0.16698608031704576,-0.07881535363339003,10.103482535146856,0.017695268329299563,-0.010691772727008511,1.1853457560892913,0.000961504236469659,-0.0006249728406387176,0.07022978795380425,0.07023915003389913
100,17526525,0.16487566993082892,-0.07962152413332635,10.102619904192938,0.017892624506206767,-0.010787079691396103,1.1974385921146102,0.0009829217080035886,-0.0006378849750293187,0.07166312194856543,0.07167270107747017
101,17527707,0.1627715091424229,-0.08107789808209646,10.101798079242853,0.018085020430013112,-0.010882913766929141,1.2093789174442753,0.001004298202151864,-0.0006507485791018289,0.07309260782898457,0.07310240357083879
102,17528906,0.16069152130834252,-0.08303703984127603,10.101218330595973,0.018277689564061814,-0.010982475177698832,1.2214902782226598,0.0010262131519391741,-0.0006639165668398898,0.07455717467257353,0.07456719247630005
103,17530104,0.1586245706020455,-0.08517979315470303,10.101091634088414,0.018467721799643066,-0.011084520569898166,1.2335913860002976,0.0010483374826551466,-0.0006771958224826278,0.07603501715300189,0.0760452591495145
104,17531291,0.15659600521196831,-0.08707615441144043,10.101627833931586,0.018653601257829673,-0.011187879965184545,1.2455820182391744,0.0010704793073481903,-0.0006904758360013019,0.07751352300865179,0.07752398939709149
105,17532480,0.15469673553708205,-0.08840265310243843,10.102918434260417,0.018837535676383264,-0.011292990719723344,1.25759438825751,0.00109287713726741,-0.000703903201967053,0.07900880273628996,0.07901949613846498
106,17533672,0.153046911327012,-0.08913215900325902,10.104826515075402,0.019019967594685064,-0.01139923625325523,1.26963934146348,0.0011155489386402747,-0.0007174910915809332,0.08052221283131443,0.08053313605064996
107,17534876,0.15171447919254027,-0.08953231991940555,10.106983214618108,0.019202631827632884,-0.011507033166438193,1.2818081492538802,0.0011386689073607447,-0.0007313455595133248,0.0820655098430161,0.08207666744576184
108,17536078,0.15068038914007204,-0.08998934780053837,10.108874090478038,0.01938374965537925,-0.01161520036249444,1.293959015910635,0.0011619681744465106,-0.0007453070303490431,0.08362084858014068,0.0836322424060884
109,17537261,0.14988884650917203,-0.09080281916246677,10.110004233877826,0.0195610681607996,-0.011722620097563637,1.3059191509193124,0.0011851089180807365,-0.0007591748899244609,0.08516575093567823,0.08517737940380171
110,17538454,0.14932045783436645,-0.09208281372615063,10.11011252010216,0.019739207466996,-0.011832474894338935,1.3179805151557944,0.0012086577925888627,-0.0007732910324734073,0.08673810169025908,0.08674996897699858
111,17539648,0.1490195437095814,-0.09376450246793863,10.109273155760459,0.01991713680218524,-0.011944429710285654,1.3300509873037725,0.0012324388539306718,-0.0007875526815474883,0.08832618256909978,0.08833829108594322
112,17540834,0.1490660954129615,-0.09567829914680623,10.107781089020097,0.020093929191345013,-0.012057904173073767,1.3420388156753502,0.001256270253951607,-0.0008018533558967538,0.08991784060449075,0.08993019094125138
113,17542036,0.14952137450645203,-0.09761421277829345,10.105951082709836,0.020273653883501767,-0.012175236456833275,1.3541861688767673,0.001280639185919576,-0.0008164879901178674,0.09154557237948062,0.09155817009775394
114,17543284,0.15038919426027408,-0.09932789904092576,10.104001640413534,0.02046133959793859,-0.012299197674836351,1.3667959629240034,0.0013061749377378034,-0.0008318373888160632,0.09325133374120978,0.09326419082865564
115,17544542,0.15161789001212134,-0.1005118607354325,10.102044925671471,0.020652074903573837,-0.012425641595641525,1.379504335440498,0.0013321552479664993,-0.0008474688459433802,0.09498675019519393,0.09499987133514289
116,17545716,0.15310085448646676,-0.1008394466067408,10.100123597925851,0.02083181530674095,-0.012544027105957839,1.391361880544463,0.0013566117991366132,-0.0008621955337657747,0.09662020904295313,0.09663357890617508
117,17546897,0.1546412260189438,-0.10007347443974082,10.098274830968643,0.02101444659466932,-0.012662213879271174,1.4032879431198368,0.0013814298605649177,-0.000877149608357194,0.09827749210377765,0.09829111452264228
118,17547971,0.15594338296723056,-0.09812508045906945,10.096617059093683,0.021181929787976124,-0.012767600215684214,1.4141317098413035,0.0014041792531572042,-0.0008908620109888388,0.09979626956014721,0.09981012359785547
119,17549273,0.15668218023181935,-0.09506337524779417,10.09540427696175,0.021385929986637953,-0.012891372730256843,1.4272759262099077,0.0014320237339998068,-0.0009076465782836332,0.10165458281607251,0.10166872046896014
120,17550506,0.15660467130660252,-0.0911264723355129,10.094978099181807,0.021579023546358996,-0.01300373167064653,1.4397230342061988,0.0014586306700324675,-0.0009236801794335404,0.10342976131724875,0.10344417003702279
121,17551680,0.15561898894352538,-0.0867003870951784,10.095612618790339,0.021761720239378696,-0.01310551792509627,1.4515752834206588,0.0014841789295934982,-0.0009390660574776034,0.10513391069998461,0.1051485796919183
122,17552901,0.1538566368304972,-0.08224213673856136,10.097362250706512,0.021949579192948734,-0.013205935574054053,1.4639041627287714,0.0015109793657880886,-0.0009551905048135234,0.10692133768267643,0.1069362796220125
123,17554101,0.15165649798156056,-0.07819195861312742,10.1000755030118,0.022131566990526607,-0.013299765924389806,1.4760242533323855,0.0015375372461767206,-0.0009711502239227912,0.1086925667866753,0.10870777906027092
124,17555301,0.14944751332404213,-0.07491505773596346,10.103566278348024,0.022310904006515458,-0.013389663993672961,1.4881485328664033,0.001564310330984539,-0.0009872178207151988,0.11047834502611498,0.11049382962657447
125,17556479,0.1476203787888673,-0.0726747300018948,10.10771878499702,0.022484800812728745,-0.013475274825615193,1.5000554255951297,0.0015907974263419335,-0.0010030916944597735,0.11224541031746604,0.11226116410734151
126,17557675,0.14647126357426865,-0.07163786405120533,10.112395973015744,0.02265998044396357,-0.013560953711020434,1.5121498511788565,0.001617898762952914,-0.001019310595098154,0.11405394153947596,0.11406997050576739
127,17558854,0.14618095654225316,-0.0718952313001387,10.117274570012857,0.02283232779172689,-0.013645718188723297,1.5240781178969016,0.00164481807741936,-0.0010353988968426588,0.1158508296404764,0.11586713168871521
128,17560070,0.1467719426450581,-0.07344303366548105,10.12179785496693,0.02301080247398328,-0.013735024917660522,1.5363862240885413,0.0016727992132277237,-0.001052100687142534,0.11771907528896806,0.11773566095263317
129,17561252,0.14808029569004666,-0.07612010989297426,10.125299452909534,0.023185833383488914,-0.013824998887554018,1.5483543280418803,0.0017002048682870075,-0.0010684418358276229,0.11954923010471356,0.11956609336756155
130,17562461,0.1498128937652884,-0.07955259244322406,10.12718255810115,0.02336695717205115,-0.013921177971817876,1.5605980917546247,0.0017284555195080174,-0.0010852725399955506,0.1214359931976449,0.12145314248247119
131,17563643,0.1516829238651725,-0.08315502618027636,10.127050625158622,0.023546246388059782,-0.014019467212762962,1.5725682655935622,0.001756287182738704,-0.0011018435502410365,0.1232947688875765,0.12331219987867527
132,17564836,0.15353730877249888,-0.08623010915872392,10.124773460138398,0.023729416397425374,-0.01412233973298932,1.5846471203315073,0.0017845963765008325,-0.0011186915015424926,0.12518525290213198,0.12520297040834688
133,17566044,0.155381437178436,-0.08816889543203982,10.120482728401445,0.023917117173536923,-0.014228847758671224,1.5968726634674162,0.001813488254046465,-0.0011358799496349675,0.1271142750796006,0.12713228501022042
134,17567263,0.15729598912453754,-0.08867047171614052,10.114562492430386,0.024108860984279733,-0.0143369370636932,1.609202315145689,0.0018428769555863022,-0.0011533566759156094,0.1290758927017632,0.12909420011701686
135,17568450,0.15935433034218785,-0.08784518680734113,10.107661616354056,0.02429801457439591,-0.014441209300433513,1.6212001094843012,0.00187171869888611,-0.001170498391355224,0.13100025723172107,0.1310188566281549
136,17569646,0.16161108920659606,-0.08612802381919743,10.100582752687421,0.024491301437087,-0.014544218416921273,1.6332804064565154,0.0019010102954048662,-0.0011878932765818618,0.13295366059784305,0.1329725565556526
137,17570699,0.1641043020215518,-0.08408785353947074,10.094035020539742,0.024664103267115694,-0.014632762926698335,1.6439094253331437,0.001926981596145139,-0.001203301575943675,0.13468469722271886,0.13470385613905048
138,17571673,0.1668154424575284,-0.08226281916227034,10.088476834184078,0.024826581508069327,-0.014712886912562386,1.653735601769639,0.0019511626865339985,-0.001217631927796511,0.1362954356988425,0.13631483945513131
139,17572890,0.16961918567463513,-0.08104587425710642,10.08417388313528,0.025033008057035358,-0.014811519741533285,1.6660080413854146,0.0019816278573394105,-0.0012356575473219569,0.13832296748520856,0.13834267972123895
140,17574084,0.17227668764536241,-0.08059477327495296,10.081343521875267,0.02523870642208392,-0.014907749900823579,1.6780451655505337,0.0020117628728073787,-0.0012534574007035401,0.1403265534128759,0.14034657080972265
141,17575278,0.17448169560623683,-0.08080074117137742,10.080202443471753,0.025447037566637767,-0.015004225985782204,1.690080927268039,0.0020421466356619444,-0.001271372446530564,0.14234451004003393,0.14236483515712953
142,17576440,0.17591971192729286,-0.08137832485810856,10.080899030120595,0.025651456271897282,-0.015098787599267326,1.7017949319410393,0.002071953627849889,-0.0012889172377209127,0.14432199575094942,0.14434262280081625
143,17577621,0.17632556105954475,-0.0820499916728852,10.083402351656982,0.025859696759508603,-0.015195688639433004,1.7137034301183462,0.0021024939297228686,-0.0013068633460040831,0.14634587950191918,0.14636681597862236
144,17578802,0.17558045244908047,-0.08269145015032067,10.087392019036082,0.026067057273850967,-0.015293347242060532,1.725616640092828,0.0021332791243632867,-0.0013249247890969567,0.14838383275386882,0.1484050812076437
145,17579990,0.1738098532483348,-0.08333740477363633,10.09226165832664,0.02627354337950999,-0.015392352078931611,1.7376062469429199,0.0021644920938981445,-0.0013432109033667274,0.150448108975237,0.1504696738076489
146,17581217,0.17135769874402376,-0.08408888876422319,10.097307898199475,0.026483799275868906,-0.015495529145445313,1.7499956437340107,0.002196987715609636,-0.0013622239176281888,0.15259535363009863,0.1526172479063856
147,17582420,0.1686619292360098,-0.08503934380828083,10.101935479023966,0.026686699576739827,-0.015597831476046676,1.7621482721152766,0.002229091815200454,-0.001380988108893873,0.1547152180014533,0.15473743780906649
148,17583605,0.1661815282067002,-0.0862857648115515,10.105701654061077,0.026883624687664767,-0.015700080107348365,1.774123528575339,0.0022609489104553366,-0.0013995927038210807,0.15681755438281508,0.15684009727209253
149,17584818,0.16438171188206396,-0.08797396611128787,10.108282414857591,0.027083019704177713,-0.015806792528241357,1.7863848751445612,0.002293800613356504,-0.0014187663431578376,0.15898443923636543,0.15900731536156407
150,17586027,0.1636789067264975,-0.09028350403077091,10.109518335342875,0.027280907502410048,-0.01591594528461456,1.7986072828119908,0.0023267832305269177,-0.0014380087210069366,0.16115895544128514,0.16118216622259945
151,17587252,0.16432862708092302,-0.09333703677739405,10.109477039147404,0.027482210070584177,-0.016030283154666865,1.8109913921849463,0.002360448937863383,-0.0014576458178714034,0.1633774198967117,0.16340097240416002
152,17588437,0.16632552257760452,-0.09707624200414142,10.108373834733635,0.02767930581483864,-0.016145318501441772,1.8229698151791056,0.002393248915253967,-0.001476778020295612,0.16553763912769895,0.16556152476243954
153,17589661,0.16940657521100538,-0.10117908194280928,10.10646547875286,0.02788665946289691,-0.01626916169773977,1.835340128925099,0.002427382186436553,-0.0014966914742136454,0.16778409544550327,0.16780832802371212
154,17590842,0.1731542422921118,-0.10511105108687284,10.104107965013629,0.028091154623043894,-0.016393297849073365,1.84727308043178,0.002460557840046368,-0.0015160519589734012,0.1699657249534932,0.16999029506825683
155,17592066,0.1770916248403821,-0.10830217905384784,10.10181408132238,0.028307914771848523,-0.016525859716235273,1.8596377008673186,0.0024952067277271106,-0.0015362796112660731,0.1722419214993548,0.17226684455648447
156,17593250,0.18072697088393846,-0.1103611870231661,10.100139605484465,0.028521895505375105,-0.0166565273616707,1.8715962661602121,0.002528976652005475,-0.0015560009396622912,0.1744578914784885,0.1744831589608312
157,17594452,0.18358232741021235,-0.1112184431926071,10.09954553708916,0.02874256146292218,-0.016790211930388214,1.8837359198957933,0.0025635252108839072,-0.0015761827744026177,0.17672214205420325,0.17674776237868234
158,17595635,0.18523307812931647,-0.11108142580411,10.100295584285453,0.028961692194349162,-0.016921621257114477,1.895684569572003,0.0025977868927498224,-0.0015962010523497842,0.17896473690000694,0.17899070760301602
159,17596833,0.18538699414599086,-0.11022354389663032,10.102305350416685,0.02918378581333606,-0.01705366906270264,1.9077871313818022,0.002632749068154199,-0.001616631347886902,0.18125026588340235,0.18127659459338616
160,17598015,0.18398393630121374,-0.10875056242610161,10.105062767750448,0.029401254826044092,-0.01718221222749029,1.9197313155732834,0.0026675013513585834,-0.0016369407227397955,0.18351938829840997,0.1835460732890024
161,17599230,0.18122298439461046,-0.10649598034641015,10.107783378689419,0.029621440752083544,-0.01731160484361118,1.932012272378391,0.002703491401872365,-0.001657974322624783,0.1858667832093497,0.18589383756651506
162,17600521,0.17747090087223136,-0.10317269471827302,10.109690290818852,0.029850555685109595,-0.01744480079249247,1.9450638825438382,0.0027420284692618413,-0.0016804955604478907,0.1883778606817138,0.18840531091366322
163,17601732,0.1731264076498575,-0.09867798337122552,10.11019795669725,0.03006021176477357,-0.017564299830355026,1.9573073322693986,0.002778431385708982,-0.0017017659275424507,0.19074815986109206,0.19077598428164372
164,17602938,0.16854790286887217,-0.09325749844806579,10.10899205528804,0.030263480535633432,-0.017676768373483392,1.969498776688076,0.002814929143234956,-0.0017230841102008716,0.19312337538577787,0.19315157510444572
165,17604152,0.16407295192298618,-0.08745635469006774,10.106108011968773,0.030462665099267938,-0.017782940388077133,1.981767591814606,0.002851910818665467,-0.0017446725998319973,0.1955292412422408,0.19555782126666432
166,17605359,0.16006076846365008,-0.081991160446054,10.101949975191584,0.030655858446803564,-0.01788190371873552,1.9939606454346623,0.002888912439810759,-0.0017662560576205111,0.19793595174128045,0.19796491221242335
167,17606544,0.15687190009152735,-0.07759441601713986,10.097177738265987,0.030841751648412023,-0.01797385310171583,2.0059258010545076,0.0029254599155141272,-0.0017875550735460444,0.20031297381553004,0.20034230992897997
168,17607598,0.15478784036099125,-0.07484483024035188,10.092579411345488,0.031004898032152506,-0.018052739552789163,2.0165633797540656,0.002958139078040016,-0.0018065826610346842,0.20243843161779082,0.20246810347209546
169,17608790,0.15395134803363922,-0.07402831909726182,10.088983895371392,0.031188408039008603,-0.0181409813091531,2.0285894485573484,0.0029953156604225145,-0.0018282067107551947,0.2048565102404712,0.2048865638434768
170,17609959,0.1543731269784195,-0.07508076288861575,10.087075525825044,0.03136887022444638,-0.01822875072096989,2.040381239847038,0.003031985869714892,-0.0018495161203480085,0.20724171590985238,0.20727214588905463
171,17611163,0.155957600455914,-0.07768321084639267,10.087144227176147,0.0315566431753953,-0.018322281306828947,2.0525261614965578,0.003069980068098068,-0.0018715761470414305,0.20971295740829424,0.20974377721359394
172,17612380,0.15846722953780212,-0.08144432124195665,10.089010156060693,0.0317494977937428,-0.01842139904578041,2.0648044868564837,0.003108619206913053,-0.0018939949896801453,0.2122258244687986,0.2122570406414257
173,17613543,0.16144840509963515,-0.08598108304634336,10.092173651822185,0.031937262288873676,-0.018521395045363306,2.0765416848135527,0.003145762242955013,-0.0019155353721179028,0.21464084244823675,0.21467243964407687
174,17614728,0.1642552307759641,-0.09087392858310953,10.096006327783043,0.032131904737343196,-0.018629080650734292,2.0885054523119755,0.003183838550068765,-0.001937610832689023,0.21711572140922644,0.21714770928264635
175,17615925,0.16622014725742215,-0.09561222971883696,10.099857350311847,0.03233087025361033,-0.01874352848970774,2.100594981560299,0.0032225386017623366,-0.001960046836291203,0.2196301336021541,0.21966251870708478
176,17617130,0.1668408541609472,-0.09962652186295522,10.103158916948612,0.03253191348287427,-0.0188635784485526,2.112769288055222,0.0032617395575092003,-0.001982777448321709,0.22217602059426064,0.22220880828277695
177,17618326,0.1658551472249112,-0.10242837033118067,10.105583266330926,0.03273027623895527,-0.018986082779468692,2.1248555656417536,0.003300884967890991,-0.0020054848033259536,0.2247173478507682,0.2247505377879011
178,17619517,0.16324012139987296,-0.10374039926711509,10.107078175124396,0.032924695223542515,-0.019109637594995826,2.1368930957483268,0.00334009827990223,-0.0020282443817015937,0.22726238752780445,0.2272959806433657
179,17620707,0.15922455333772226,-0.10351963868341137,10.107713889086012,0.0331141724420144,-0.019232825965029086,2.148921275276339,0.0033795041451082273,-0.0020511314445999782,0.2298196038453833,0.22985360232138793
180,17621889,0.15428177911045152,-0.1019254278606902,10.107549986155984,0.033296533504922954,-0.01935330182076042,2.1608683993599755,0.0034188606477110464,-0.002074007047352117,0.2323737502934268,0.2324081537700276
181,17623094,0.14903741216173738,-0.09928452847317529,10.106670713987432,0.033476123586577845,-0.0194729396775706,2.1730469375703305,0.0034591993766328725,-0.0020974719396635896,0.23499227185319904,0.2350270905227582
182,17624287,0.14414650892441253,-0.09604334998096249,10.105282010770797,0.03364809037172467,-0.019587519394097887,2.18510253900918,0.00349934154844634,-0.0021208398503007484,0.23759909918223698,0.23763433103226855
183,17625481,0.1402305970689311,-0.09270093931693266,10.103701938507855,0.033815525704624975,-0.019698204315642304,2.1971663591237585,0.003539717286137662,-0.002144359506253625,0.24022251581503076,0.24025816319255533
184,17626662,0.1378359043328083,-0.08972635070488094,10.102269680251828,0.03397830990764202,-0.01980417113582477,2.209097139616136,0.0035798456701385873,-0.002167748232365034,0.24283145953691743,0.24286751978856805
185,17627867,0.13730503450898351,-0.08745890078751282,10.101289425325534,0.03414376247422535,-0.019909559111273723,2.221269193373653,0.003620988903920029,-0.002191739251094119,0.24550808891493267,0.24554457233718197
186,17629067,0.1386170651088331,-0.08603657306552719,10.101006690373962,0.034310102952355946,-0.020012802998952355,2.2333904014021018,0.003662161027462856,-0.0022157546146928616,0.2481881573966152,0.24822506413299736
187,17630270,0.14136644771280127,-0.08540124651883692,10.10156976989517,0.03448016678895444,-0.020115540698514515,2.245542589835286,0.003703640668109968,-0.0022399536101531748,0.25088954513218703,0.2509268781996258
188,17631464,0.14490362796739403,-0.0853355152250792,10.102983913583689,0.03465318172074751,-0.02021743130369326,2.257605552628105,0.0037450165670845407,-0.0022640932231297846,0.253585126162025,0.2536228843732775
189,17632661,0.14854535498911345,-0.08550670062302762,10.105102679527743,0.03483099051066948,-0.020319782824339022,2.2697013605354996,0.003786709262725812,-0.0022884160031705182,0.256301958690586,0.2563401452045208
190,17633849,0.15177291713541535,-0.08555392479508978,10.107644258785193,0.035011296736226355,-0.020421420886995587,2.2817092419149363,0.003828302683248449,-0.002312676651184269,0.2590126292699809,0.2590512429927255
191,17635030,0.15432178604940316,-0.08518343314063227,10.110192670718948,0.0351935507655507,-0.020522022521534674,2.2936493794590556,0.0038698662667025646,-0.0023369131597822013,0.26172142918712205,0.26176046975009093
192,17636236,0.1561334221137638,-0.08424828050695973,10.112261276788303,0.035381847672619905,-0.020623625947826067,2.305844766558862,0.003912536774995744,-0.0023617852526752795,0.26450227797559206,0.26454175668100643
193,17637433,0.15726316184067982,-0.08285381797605726,10.113429318726443,0.0355700916773432,-0.02072280196794341,2.317950541453378,0.003955114174733524,-0.0023865904466309077,0.26727686477371176,0.2673167805906695
194,17638625,0.1578245481920436,-0.08140249558849078,10.113403334923031,0.03575821853878812,-0.02081983374268489,2.3300057182286062,0.003997737971231759,-0.002411407688452188,0.27005423158984027,0.27009458490592814
195,17639812,0.15796477642814197,-0.08045960250873833,10.112038846954844,0.035945722728408326,-0.020915339290862763,2.3420087083399417,0.00404040554411038,-0.002436234196190442,0.27283419592663977,0.2728749870929097
196,17640998,0.1578410153037062,-0.080561982904831,10.109447791275624,0.03613292217255852,-0.021010885802587892,2.3539985134203945,0.004083259189807035,-0.002461153106752311,0.27562603816355635,0.2756672689928281
197,17642201,0.1575953106783357,-0.08210463767385856,10.106057334776168,0.036322509331304556,-0.021109657681709543,2.36615610039413,0.004126955168532595,-0.002486548024943408,0.27847252395233046,0.2785142030066415
198,17643388,0.15733529336882443,-0.08524693049179702,10.102501573507912,0.03650926632453335,-0.021210845788203307,2.378147769761884,0.004170291667659816,-0.0025117252988940053,0.28129538535503784,0.2813375089080901
199,17644594,0.15710888988477015,-0.08981512490874416,10.099440515170802,0.036698739645734384,-0.021319162828843254,2.39032769502318,0.004214550347672571,-0.0025374362092655902,0.2841781205552358,0.28422069808417416
200,17645832,0.15686838960232705,-0.09525124832949036,10.097345510441974,0.03689294271206207,-0.021437083874275162,2.402828208765107,0.004260223810750104,-0.002563975319101943,0.287152821877687,0.2871958679867683
201,17647070,0.15644210013548754,-0.10066819944585563,10.096303167606337,0.0370866180320298,-0.021561711105189132,2.4153274320866034,0.004306137043873757,-0.002590668717450167,0.2901429972386102,0.2901865145509839
202,17648278,0.15556179920585733,-0.10508390437892179,10.096020316500423,0.037274536685470476,-0.02168865246167887,2.427523424628936,0.004351164684189805,-0.002616868609623875,0.293075445535562,0.293119425168816
203,17649500,0.15400199416843893,-0.10774478006046581,10.096046553926962,0.03746272712234431,-0.02182031658291276,2.4398607935178345,0.004396944136733309,-0.0026435330364881944,0.29605695542524074,0.29610140533323975
204,17650548,0.1517860898824435,-0.10831777347887361,10.096006952096657,0.03762179894454111,-0.02193383360951862,2.450441408803632,0.004436371782027188,-0.00266651969411097,0.29862501802166697,0.298669873121325
205,17651829,0.14928629716216457,-0.10688559538981905,10.095691400964542,0.037813034691205845,-0.02207075405721298,2.4633739894882676,0.004484810279466623,-0.00269479233005826,0.3017806001022014,0.3018259532031495
206,17653023,0.14711373855020823,-0.10385451092247203,10.095011175387985,0.03798868849503479,-0.02219475634325441,2.475427432831681,0.0045301687735296945,-0.002721292869132106,0.3047362604570025,0.3047820800199944
207,17654214,0.14590937383691926,-0.09987367734746708,10.093948649659552,0.03816246655927456,-0.022313705892975245,2.4874493256734254,0.004575620271201791,-0.0027478684928506393,0.30769881260387955,0.3077450996522246
208,17655409,0.1461692754116475,-0.0957712278164409,10.092603984343912,0.03833713884339148,-0.022428152510215894,2.4995099874347164,0.004621433152119644,-0.0027746701351003475,0.31068572703886405,0.3107324853059391
209,17656592,0.14810684010246566,-0.09242387161644892,10.091239124341678,0.038512349235232696,-0.022537489950338153,2.5114479233188125,0.004666993261264924,-0.0028013319857115976,0.3136567699321502,0.31370399680473415
210,17657796,0.1515797983535035,-0.0905153803628582,10.090143957043738,0.03869485131245031,-0.022646470468295033,2.523596456643093,0.004713581862245114,-0.002828598336155425,0.3166951800659485,0.3167428861072067
211,17658978,0.15615844596462083,-0.09033017731471744,10.089442081992704,0.038879430595580494,-0.022753240737881028,2.5355221771840086,0.004759537349209091,-0.0028554926667076004,0.31969216727938,0.31974034599020373
212,17660178,0.16127037550479836,-0.09172578421731768,10.089102172014893,0.03907295504618625,-0.02286331167894181,2.5476290997904263,0.0048064248952645145,-0.0028829286407223305,0.3227493221991285,0.3227979832307169
213,17661356,0.16630409655697412,-0.09420888415629328,10.08908060318997,0.03926886127193036,-0.022974289744477922,2.559514036740984,0.004852683613842848,-0.0029099923540413255,0.3257644297344094,0.3258135667432245
214,17662510,0.1707116939015897,-0.09706338181754517,10.089391329171429,0.039465862566692794,-0.02308630088709537,2.571157194334848,0.004898227219244811,-0.0029366339452650335,0.3287315451366718,0.3287811509450679
215,17663681,0.1741465334767204,-0.09957514969822207,10.090151675512024,0.03966978815739403,-0.023202903387391987,2.5829727619468725,0.0049446805411771195,-0.0029638045451316694,0.33175620624091157,0.33180629045031423
216,17664872,0.1765193933518547,-0.10124482916753644,10.091612992805754,0.03988002275487609,-0.02332348597893052,2.594991873021304,0.004992177648278177,-0.002991582816932576,0.33484684156167993,0.3348974152024099
217,17666062,0.17791997246676208,-0.10189053940145809,10.094080833489748,0.04009174752211154,-0.023444735720818257,2.6070038292131565,0.00503988682782949,-0.00301948205244035,0.3379491761184436,0.33800024167186205
218,17667275,0.1784833582657043,-0.10167192282257945,10.097761550977893,0.04030824783568784,-0.023568063763202047,2.619252413974493,0.00508878073245418,-0.003048070113785114,0.34112632929659464,0.3411778992844206
219,17668464,0.17828182860836864,-0.10096259823007545,10.10259483286038,0.04052022492990319,-0.023688108292497605,2.631264399230764,0.005136959279895835,-0.003076235274544894,0.34425490266728004,0.34430696999126537
220,17669658,0.17729414818603126,-0.10009377637863931,10.108185937270662,0.04073191414283731,-0.0238076202614937,2.643333573239865,0.005185593185382383,-0.0031046615731371175,0.34741104295372843,0.34746361257887903
221,17670802,0.17543080657742965,-0.09919944803227485,10.113936042388897,0.04093260698556189,-0.02392110443004262,2.654903916072358,0.005232420087773865,-0.0031320273166050862,0.3504482530337152,0.3505013065160667
222,17671989,0.17257741632104218,-0.09824132914535745,10.119240004154811,0.04113745637873497,-0.02403771688773816,2.66691545395729,0.005281250248495423,-0.0031605600865508314,0.35361388167756247,0.3536674399196526
223,17673018,0.1686939389519152,-0.0971559378595428,10.123642757977178,0.04131104244191649,-0.024137690347795632,2.6773326823552486,0.0053237593111681554,-0.003185397769918713,0.35636885700770604,0.3564228547906751
224,17673972,0.16396617702521857,-0.09601408926829784,10.126911921542064,0.041467466174798545,-0.02422928778895759,2.6869937563283997,0.005363319273898913,-0.0032085125104693783,0.3589322490512433,0.35898665595694135
225,17675236,0.1589052657007699,-0.09503432573351606,10.128978768270278,0.04166832243064432,-0.02434941117668475,2.6997967854914933,0.005415988033451248,-0.003239290166196708,0.36234479218810456,0.3623997438644238
226,17676439,0.15426757349720932,-0.09446991422960295,10.129878016377088,0.04185390632156146,-0.024463058483502963,2.7119830287451947,0.005466338282756086,-0.003268719225552362,0.36560730777168504,0.3656627802711901
227,17677625,0.1507885814401111,-0.09448566065506273,10.129771644333147,0.042032741579149435,-0.024575118477039866,2.723996937915374,0.0055161891142689575,-0.0032978653160661313,0.36883796814005265,0.36889395630678173
228,17678812,0.14892761926382492,-0.09508363705463922,10.128931689368393,0.042209518663215595,-0.024687982754223722,2.736019979830654,0.005566291812922194,-0.003327169951595395,0.37208562385611166,0.3721421303008102
229,17679997,0.14879726769363275,-0.09608469782921145,10.127598779968457,0.04238584342543255,-0.02480184312115134,2.7480211843849167,0.005616519037381332,-0.0033565601356939593,0.3753420289596078,0.375399054987565
230,17681202,0.1502388842983358,-0.09710904662071632,10.125829141351993,0.04256688128101205,-0.024918859522329303,2.760222808500246,0.005667812129324951,-0.003386587361418366,0.37866809744385055,0.3787256541218661
231,17682386,0.15291869379279646,-0.0976144028495792,10.123532672195948,0.042747937014462715,-0.025034434975303204,2.772209071184126,0.005718425686750075,-0.0034162281324291253,0.3819503929841326,0.3820084733454495
232,17683574,0.15637628781709778,-0.09706583637874097,10.120653715950766,0.04293371204438943,-0.02514974918892115,2.7842324077986755,0.00576943093665881,-0.0034461060344655636,0.3852580610845974,0.3853166692615271
233,17684753,0.1600544026194021,-0.095106460824867,10.117264659575307,0.04312241618507771,-0.025261879706233666,2.796160662832315,0.005820272265341017,-0.003475889790639213,0.38855473450607675,0.3886138688803671
234,17685941,0.16338874496864203,-0.09163281670157668,10.113548333749197,0.04331652201410045,-0.02537073949247514,2.8081755582528087,0.0058717322934937685,-0.0035060302291562736,0.39189084706928107,0.39195051410193715
235,17687135,0.16596368221639823,-0.08679716464834888,10.109737547597529,0.04351468265066683,-0.02547437530706527,2.8202465848846403,0.005923688824578665,-0.0035364466332729098,0.3952582214916333,0.3953184263360481
236,17688334,0.16761570232100056,-0.08097350014200339,10.106055967485615,0.04371565387774971,-0.02557146253373553,2.8323637459896553,0.0059761038935780865,-0.0035671068168508587,0.3986542256230749,0.3987149729768411
237,17689522,0.1683954358772815,-0.07471543957312576,10.102717210460737,0.04391570765557192,-0.025660224475948405,2.844365774035683,0.006028275754272906,-0.0035975911635282853,0.40203333216262926,0.4020946193876964
238,17690682,0.16848474382632167,-0.06866586102552104,10.099945603818778,0.04411114995841046,-0.02573987687473801,2.8560817109361127,0.006079444688224662,-0.0036274494207029816,0.4053463869473152,0.4054082034792334
239,17691865,0.16818526981675838,-0.06344322460551298,10.097950488520008,0.04431011313260368,-0.02581493020944633,2.868027586364032,0.006131863552060532,-0.0036579884831407566,0.4087392635819838,0.4088016220906007
240,17693063,0.1679134517449635,-0.059583448410452815,10.09682837033067,0.044511273447794146,-0.025886311180642056,2.8801235867516883,0.006185188057650989,-0.0036890002839351657,0.41218965163891236,0.41225256117168185
241,17694250,0.16809311402898744,-0.05751435357805147,10.096487088986807,0.04471079997414656,-0.025954580718339202,2.8921081169263156,0.0062382597772203015,-0.0037198083712478344,0.4156225839737039,0.41568604158468614
242,17695446,0.16897095560191203,-0.05753642908443626,10.09675183441276,0.04491288923704644,-0.026023394287524187,2.9041838321202733,0.006291975592747809,-0.003750932350815713,0.41909598783691976,0.41915999984655467
243,17696609,0.1704936817464656,-0.05978200377956122,10.097552636031093,0.04511117338891758,-0.026092920757919816,2.9159272858359775,0.006344439887399121,-0.003781278417657174,0.422487211270347,0.42255176448685133
244,17697763,0.17235479670944567,-0.06413269339242983,10.098990554578293,0.04531007082432029,-0.02616692988609468,2.927581520935961,0.006396727709130386,-0.003811475054745727,0.4258656403455071,0.4259307327422694
245,17698937,0.17414182405874207,-0.0701889490910635,10.10130350407396,0.04551451332576525,-0.026249331712327587,2.939440451249744,0.0064501617477748345,-0.0038422917701759996,0.4293165434352743,0.4293821867053073
246,17700117,0.17544807303102197,-0.07735432756875561,10.104789263128012,0.04572154205194185,-0.026340609818858718,2.9513641025802353,0.006504113167396126,-0.003873373689762253,0.432799153076319,0.4328653525236385
247,17701294,0.1759536110901017,-0.08497339954909051,10.109676585528844,0.0459286394521949,-0.026440623510128,2.9632631919214028,0.006558171176031359,-0.0039044943036336734,0.4362869138532105,0.43635367064400865
248,17702468,0.175524218297017,-0.09243429321028719,10.115947806253534,0.046134704884475596,-0.026549141370356875,2.9751393146459444,0.006612333319565734,-0.003935662995602472,0.4397797274086048,0.4398470427713829
249,17703660,0.17428816608827147,-0.09918656450104707,10.123149737866243,0.046342456378452815,-0.026667371755242125,2.987206109133481,0.006667573527568849,-0.003967450502734721,0.4433404770906919,0.4434083623785635
250,17704819,0.17261784960653337,-0.10473439110543417,10.13035120555079,0.046542520466146785,-0.026788758914533323,2.998947186180714,0.0067215163087891135,-0.0039984986743166655,0.44681625687947535,0.44688469898277244
251,17706026,0.1709897180231992,-0.10868835894189954,10.136370171666705,0.04674890505580079,-0.026919945763776196,3.011181784977916,0.006777942237191465,-0.004030991048853543,0.4504507532939437,0.45051977818169975
252,17707204,0.16981036448482534,-0.11083897201813922,10.140108899594525,0.04694894166516391,-0.027050514072813565,3.0231268332616383,0.006833248090473028,-0.004062856554431318,0.4540119967035259,0.4540815931455163
253,17708369,0.16931343754079714,-0.11118820917970698,10.140755611463955,0.04714619181989894,-0.027180048336507924,3.0349408135489937,0.00688817340394321,-0.00409452131074335,0.45754770275131046,0.45761786714529457
254,17709517,0.1695085969635191,-0.10993059108403247,10.137856458313289,0.04734078768921306,-0.027306248655072394,3.046579072763137,0.006942520628210426,-0.004125868884199373,0.46104517552684254,0.46111590220171306
255,17710712,0.17015692241081615,-0.10740221284530993,10.1313919622609,0.04754412521149398,-0.02743459429942254,3.058686086158039,0.006999335857838161,-0.004158653224387183,0.4647003053998014,0.46477162019400475
256,17711873,0.17082507491761834,-0.10403117433575641,10.121816217601916,0.04774245312347334,-0.027555374492826353,3.070437514786675,0.007054764845914514,-0.004190645014173355,0.4682650833544687,0.4683369721702884
257,17713068,0.17102926498710852,-0.10029820312174575,10.10998133456422,0.04794683309513294,-0.02767523084555684,3.0825189424814794,0.0071120613114631975,-0.004223716915033795,0.4719486934907341,0.47202117588969167
258,17714250,0.17039545153838376,-0.09668509503972403,10.097036955186498,0.048148240518851304,-0.02778951262789379,3.09445364016251,0.00716897253175648,-0.004256564118959965,0.47560633769340616,0.4756794098543621
259,17715456,0.16877381967380192,-0.09359941024014495,10.08430731358973,0.04835178174537791,-0.027902393516643406,3.106615314782699,0.007227284780541405,-0.004290214405541037,0.47935291576303407,0.47942659233241014
260,17716622,0.16628058213218105,-0.09131697444507475,10.073057052312821,0.04854566490414403,-0.028008869108846365,3.118360499305696,0.007283889025819637,-0.0043228727469219515,0.48298892410522454,0.4830631874573438
261,17717825,0.16323945993794142,-0.08998208583467279,10.06425027476117,0.048742041974449375,-0.028117117558105476,3.1304677923862334,0.0073425257023149,-0.004356697639344352,0.48675487685946517,0.48682974810962704
262,17718990,0.16006532793427553,-0.08960085524917896,10.05845430370885,0.0489285180814928,-0.02822150255447077,3.1421858916500542,0.007399527425879839,-0.004389575689820311,0.49041552342323746,0.4904909856412766
263,17720162,0.15718895248430245,-0.09000175686991702,10.055866726273898,0.049112743533804404,-0.028326984613522312,3.1539713674532472,0.007457087561301458,-0.004422774915787359,0.49411197786589267,0.4941880368477135
264,17721344,0.15502455617478303,-0.09087912764618408,10.05638019785435,0.049295982559203,-0.0284344037424001,3.165858008847111,0.007515355412686436,-0.004456384381010876,0.49785402203234996,0.49793068511843885
265,17722533,0.15391319608445644,-0.09195045023765472,10.059671429441032,0.049478985349347415,-0.028543732827732673,3.1778189581767164,0.0075741859262668096,-0.00449032287934305,0.5016324487736221,0.5017097218059732
266,17723704,0.1540504912229313,-0.09310195067648358,10.065348360899113,0.04965937847456947,-0.028652755211974835,3.1896054811073293,0.00763233705846053,-0.004523875255696273,0.5053674767919988,0.505445352748855
267,17724873,0.15545550196645488,-0.09438988729761294,10.073051894424752,0.04984110595636826,-0.028763096990225744,3.201380878771912,0.007690601311323524,-0.0045574993160778475,0.5091098910392832,0.5091883711383997
268,17726053,0.15798287038305137,-0.09588071829870043,10.082356693206517,0.05002752574342026,-0.02887623623781821,3.2132780596698955,0.00774963379170076,-0.004591573274838473,0.5129015591496936,0.5129806514355394
269,17727253,0.16132945221920478,-0.09750397305879702,10.09262180941726,0.05022112108608331,-0.028993241005488765,3.2253892058411964,0.00780989913700406,-0.004626365164045059,0.516772026196703,0.5168517435770216
270,17728416,0.16502160070887575,-0.09907285530252513,10.10298764628015,0.05041304120770773,-0.0291084627362056,3.23713898047382,0.007868529503928624,-0.004660218306207266,0.5205368188309941,0.5206171445024711
271,17729600,0.1684483945852385,-0.10040923315755163,10.112433776864135,0.05061248410689666,-0.029227347268264144,3.2491121020656273,0.00792845468511119,-0.004694823485372891,0.5243837675598398,0.5244647151539413
272,17730774,0.17097815178367004,-0.10144503605798791,10.11989660117095,0.05081321245709069,-0.029346443740596223,3.260992860675402,0.007988109396535815,-0.004729276210324351,0.5282121731782727,0.5282937401095325
273,17731962,0.17208791425157402,-0.10219380566168168,10.124511046679165,0.051017652899221555,-0.0294678499817223,3.273020779798857,0.00804871836818009,-0.004764284016102637,0.5321005218646738,0.5321827182821841
274,17733140,0.17145003923257202,-0.10259770333947357,10.125798963039339,0.05121962104543752,-0.0295887100762562,3.284948970977317,0.008109055081771616,-0.004799139516572467,0.5359701917524851,0.5360530150662473
275,17734311,0.16898187331997605,-0.10247202287748836,10.123693598706346,0.051417498819095214,-0.029708704815045738,3.296803816181402,0.008169264972888777,-0.004833928409910886,0.5398307490212335,0.539914198130495
276,17735472,0.16485378020628116,-0.10163451258238504,10.118501352340504,0.0516088940579147,-0.029826702484153887,3.3085513962514694,0.008229182898890016,-0.004868557211494989,0.5436719771922814,0.5437560492396104
277,17736655,0.15948178267726562,-0.10002708551052945,10.110859761588138,0.05179756100682191,-0.029945034526312843,3.320512543349428,0.008290459413561086,-0.004903982187339617,0.5476001435310638,0.5476848527701157
278,17737842,0.15353761632913288,-0.09775850413009603,10.101666159822143,0.05197981015740459,-0.030061073870715268,3.332503221081137,0.008352159448217926,-0.004939664682024157,0.5515558248544871,0.5516411757524387
279,17739032,0.14790369714054197,-0.09513507187115777,10.091934651057592,0.052155815557001835,-0.030174284606241945,3.3445126233158953,0.008414224868730759,-0.004975572080705585,0.555535794876233,0.5556217912271258
280,17740217,0.14350933849544256,-0.0926676047111847,10.082624814950599,0.05232587412311893,-0.0302840957178247,3.3564605337216116,0.008476231029566655,-0.005011458734131207,0.559513200608693,0.559599841732013
281,17741384,0.1411322472010296,-0.09102010898043855,10.074534761231671,0.05249057545560253,-0.03039031618500487,3.368217515787969,0.008537487531123343,-0.005046924233119108,0.5634439104496176,0.563531188453945
282,17742571,0.14124872950531742,-0.0908697144115442,10.068238850482805,0.05265823769752535,-0.03049817853601137,3.3801685153034917,0.008599992859270305,-0.005083125571041353,0.5674561704772828,0.5675440982474345
283,17743769,0.1439109578875914,-0.09269337244634909,10.064054256494234,0.05283064302507468,-0.030609225196202097,3.392225252302772,0.008663283969614344,-0.005119795422826403,0.5715200563295415,0.5716086419756371
284,17744937,0.1486933123120083,-0.09657675739254665,10.062069161006596,0.05300431681385511,-0.03072202684883659,3.4039777490828276,0.008725193011652928,-0.005155678750185844,0.5754959023404702,0.5755851315202103
285,17746098,0.1548300908215341,-0.10212742890544935,10.06219183348208,0.05318407454929891,-0.03084059679379582,3.4156599538015002,0.008786939722204663,-0.005191484683063441,0.5794614835468338,0.5795513547022332
286,17747277,0.16147754873051276,-0.10854782069909202,10.064199517088545,0.05337445657925218,-0.03096857467440005,3.4275256450321474,0.008849868206511602,-0.005227996632604559,0.5835025362823267,0.5835930619566781
287,17748553,0.16784577674144074,-0.11484595294521228,10.067787781905723,0.05358862779037426,-0.03111511811035814,3.440372142241859,0.00891824729557212,-0.005267699523313376,0.5878924511358273,0.5879836884604742
288,17749735,0.1731599721097162,-0.12005576856724903,10.072561546928494,0.053793302877407946,-0.03125702402880463,3.4522779099903285,0.008981830979573216,-0.005304645325715423,0.5919730436254359,0.5920649431683482
289,17750916,0.17668421837767542,-0.12340861297555585,10.077992539770701,0.05400196693931198,-0.031402769600728755,3.4641800191797976,0.009045607302528543,-0.005341731996613883,0.5960642402280872,0.5961568045329032
290,17751979,0.1778785877589972,-0.12446297278731336,10.083448519634608,0.0541910518780998,-0.03153507374080167,3.4748987249561694,0.009103212390674962,-0.005375253780000355,0.5997580575727156,0.5998512227648003
291,17752949,0.17652346680112543,-0.12314590982102666,10.08830025732585,0.05436227964089689,-0.031654525273328064,3.4846843762057755,0.009155943801926632,-0.005405958669515484,0.6031382014176352,0.6032319170147916
292,17754095,0.17273982980763478,-0.11969802162595079,10.092061273331472,0.05456023948585644,-0.031791699206111405,3.4962498784250133,0.009218469836377424,-0.005442391956805687,0.6071449037783102,0.6072392724456392
293,17755311,0.16695714397167807,-0.11456131156138108,10.094530173114114,0.054763259372926004,-0.03193100576097004,3.50852482711552,0.009285061959774903,-0.005481220059811027,0.6114112699680827,0.6115063345484858
294,17756496,0.15984723363215528,-0.10824741939653701,10.095838164409967,0.054952678344780105,-0.03205927895295494,3.520488395340346,0.009350180883613467,-0.005519210305370279,0.615583048716561,0.6156787940412818
295,17757674,0.15224075048504887,-0.10126538458570612,10.096318667320793,0.055132017948851496,-0.0321785695759969,3.53238185873045,0.009415126400757213,-0.005557116660330803,0.6197441945461455,0.6198406188887344
296,17758880,0.1450616908174609,-0.09413512825418935,10.096292142538358,0.055306962347977356,-0.03229209654067145,3.5445579870543513,0.009481826597348874,-0.005596060928758853,0.624018931478533,0.6241160531320683
297,17760053,0.13924930264386026,-0.08741494623812682,10.095941171001423,0.0554703017799786,-0.032394634272608774,3.556400526047936,0.00954689326133679,-0.005634059834760623,0.6281905892955872,0.6282883910122025
298,17761234,0.13561330022584922,-0.08170193918449618,10.095319632022134,0.05563046108754533,-0.032491124262785664,3.568323098533354,0.009612592835881182,-0.005672431852514973,0.6324047788749552,0.6325032670018637
299,17762401,0.1346571660465313,-0.07759219589963542,10.094437996114843,0.055787606000321635,-0.03258167435540054,3.5801033076748197,0.009677696972083557,-0.0057104546664877255,0.6365827594350116,0.6366819274340016
300,17763605,0.1364500659267571,-0.07556867416770108,10.093397171582762,0.05595189187969745,-0.03267265903909845,3.592255757869405,0.009745063049906712,-0.0057497925479708,0.6409078353674864,0.6410077065087662
301,17764803,0.14059618507553992,-0.07584745960182632,10.092480651983506,0.056120326109417945,-0.032763524295701445,3.6043465496904816,0.009812295200585795,-0.00578904325007705,0.6452258425340156,0.6453264151052435
302,17766011,0.1463264981916887,-0.07828532446178897,10.092057503315116,0.056297088519233505,-0.032858092967651284,3.616537755154486,0.009880302083517029,-0.005828735826381973,0.6495946201422422,0.6496959019790253
303,17767260,0.15269023749001218,-0.0824180893884364,10.09236455697551,0.05648779862585853,-0.03296103316129744,3.6291431184861485,0.009950855344000727,-0.005869904156800433,0.6541274198972314,0.6542294373981472
304,17768439,0.1587627220424449,-0.08760510708706909,10.093401410235513,0.056674979875146574,-0.0330643195825531,3.641043238748816,0.010017675145273524,-0.005908886989588263,0.6584202098757163,0.6585229240759612
305,17769634,0.16381030330371982,-0.09319068986703619,10.094993541116624,0.056870733187594516,-0.0331756824569442,3.6531067560304504,0.0100856356714327,-0.005948531930124312,0.6627856724491726,0.6628890953115179
306,17770850,0.1673922805523966,-0.09861226348094895,10.096912190373617,0.05707428220074623,-0.03329559496933704,3.665384601253945,0.010155037998588808,-0.0059890193736070255,0.6672427801242974,0.6673469268512531
307,17772038,0.16937281602481688,-0.10345274922913553,10.098972169779252,0.05727549710618371,-0.03341849683542125,3.6773821801916426,0.010223081289150953,-0.006028720547847506,0.671611510154365,0.6717163668054511
308,17773254,0.16986203762334903,-0.1074676463172031,10.101055507399199,0.0574820493439337,-0.03354917749334297,3.68966506368864,0.010292979461153177,-0.006069516347679411,0.6760981428718105,0.6762037291006265
309,17774390,0.16913727723591332,-0.11057852419633797,10.103046021199354,0.0576741892908737,-0.03367479469683001,3.7011421239687223,0.01035849734018761,-0.00610777091445501,0.6803026403246389,0.6804089107039716
310,17775467,0.16755329634507782,-0.11278888337975286,10.104763144420867,0.05785464419103735,-0.03379626832423001,3.7120249538752637,0.010420806791981357,-0.006144169495440206,0.6843004911999626,0.6844074125033237
311,17776442,0.1654754528936036,-0.11405298866220324,10.10599658479936,0.058015982757608615,-0.033907469988175655,3.721878300545443,0.010477372375170026,-0.006177229278678678,0.6879293225429944,0.688036834993529
312,17777703,0.1632701957383211,-0.11421879034201213,10.106626526178687,0.05822186647443464,-0.03405149988279693,3.734622756594954,0.010550790148794289,-0.006220168220030885,0.6926386818390606,0.6927469619169765
313,17778862,0.16127795558259447,-0.11310665869163371,10.106705644612411,0.05840878762495487,-0.03418259050022054,3.74633642843706,0.010618485933651611,-0.0062597858424206405,0.6969806857596191,0.6970896739188331
314,17780073,0.15973635902060912,-0.11065895898717082,10.106413892736354,0.05860222835572883,-0.034316598499554,3.7585752956611636,0.010689453232190399,-0.0063013432432036005,0.7015323204426648,0.7016420511647955
315,17781262,0.15875184830859546,-0.1070657006040812,10.105952140496713,0.058790984303367745,-0.03444389961757225,3.770591272756214,0.010759355712527103,-0.006342297039848894,0.7060155534659719,0.706126015809468
316,17782460,0.15834537811738705,-0.10280271400860613,10.10548139106271,0.058980682066352375,-0.03456705726895456,3.7826976394627074,0.010830014569642594,-0.006383708374457102,0.7105472252380483,0.7106584272642368
317,17783631,0.1585040311923881,-0.09854725901423059,10.105100888919576,0.05916629028687866,-0.03468245610926022,3.794530712603632,0.01089929829556853,-0.006424321530561046,0.7149906207025071,0.7151025481027321
318,17784821,0.15920888594580845,-0.09499578408326499,10.104843020148358,0.059355748861154176,-0.034795501092319304,3.806555475797609,0.010969931636713302,-0.006465728176860906,0.7195204217187062,0.7196330886717454
319,17786031,0.16044163748668608,-0.09266453572883471,10.104694676610773,0.05954988324251306,-0.0349076251805512,3.818782156356308,0.011041986995436744,-0.006507966403329373,0.7241411481278973,0.7242545695509995
320,17787233,0.16218462454596932,-0.09175592569979307,10.104583033326948,0.05974482916121732,-0.03501791580324235,3.830927865162367,0.011113800280088527,-0.00655005793812487,0.7287459234218224,0.7288600968084226
321,17788416,0.16442863689415851,-0.09213330074387469,10.104300189714797,0.05993934823866311,-0.03512690949802236,3.8428812522867997,0.011184708529054866,-0.00659161307206103,0.7332920519432777,0.733406967863651
322,17789615,0.1671689423300623,-0.09338393657804613,10.103484711271744,0.06013978380051685,-0.03523887683797943,3.8549953304556146,0.011256816129831685,-0.006633864485389768,0.737914191344494,0.7380298624412089
323,17790816,0.17036509180092332,-0.09493336756120982,10.101741341205924,0.06034439227576976,-0.03535289181242044,3.867127521806403,0.011329289744954884,-0.006676323308456485,0.7425586114981835,0.7426750417303347
324,17792036,0.1738829581339685,-0.09620513877994095,10.098812298511403,0.0605565294846932,-0.03547026208173197,3.879448072810587,0.011403168710926209,-0.006719597028196198,0.7472915381470124,0.7474087424073919
325,17793221,0.17747347555742976,-0.09679396623729106,10.094664442585886,0.06076683555322875,-0.03558496293172316,3.8914102501750514,0.011475177411056785,-0.00676176520927029,0.7519028592934699,0.7520208181819544
326,17794432,0.1808026629760733,-0.09657631409304485,10.089481258213693,0.060985787578092775,-0.03570191684808984,3.903628611978748,0.011549031199813856,-0.006805000230573326,0.7566301535425761,0.7567488866193691
327,17795630,0.18348314646570393,-0.09572827645782239,10.083640509699158,0.061205600387558685,-0.03581659932328631,3.9157088133093674,0.011622355509078152,-0.006847908516562623,0.7613211727009207,0.7614406746433604
328,17796818,0.18510655439625823,-0.09466614125323711,10.07767185853928,0.06142550697418144,-0.035929062699095154,3.9276810874773123,0.01169532901136348,-0.006890592243049149,0.7659872578328437,0.7661075251845679
329,17798015,0.18531967896054746,-0.09390392871523195,10.072158755667951,0.061647334629897216,-0.036041465701767285,3.9397374615078466,0.011769120870915467,-0.006933733877494164,0.7707031235742686,0.7708241651367013
330,17799230,0.18391361560470304,-0.09386000288926366,10.067637818039946,0.06187078967285693,-0.03615550560527774,3.951969641456765,0.011844293880367989,-0.006977662816804577,0.7755047666886385,0.7756265971669031
331,17800425,0.18089369471428865,-0.09473092457027982,10.064509107608657,0.06208695763804051,-0.03626870906013922,3.9639967298403573,0.011918487794745447,-0.007021003924131444,0.7802417427807977,0.7803643520978086
332,17801629,0.1765348629448028,-0.09651372324801523,10.06294170973887,0.06229950561302605,-0.036384911582929835,3.976112511658883,0.01199349639950353,-0.007064811357677291,0.785028982244835,0.7851523791467271
333,17802834,0.1713513339159654,-0.09910547998166044,10.062870240745129,0.0625059839703948,-0.03650433368630773,3.988238270298981,0.012068816110187857,-0.007108799079769292,0.7898348093605453,0.7899589973057253
334,17804037,0.1659309391857179,-0.10234506761661477,10.06411399821937,0.0627055988902352,-0.03662745480265052,4.000345399438839,0.01214425094565281,-0.00715286190789688,0.7946472248760702,0.7947722052687449
335,17805220,0.16075905549539582,-0.10598422044329013,10.066466431587921,0.06289577685288626,-0.03675283413543493,4.012254029227408,0.012218656649669774,-0.0071963405106790996,0.7993937213926462,0.7995194836206632
336,17806419,0.15615577931113056,-0.1096820645524206,10.069689615176307,0.06308300763228031,-0.036884342930833286,4.024327587076004,0.012294293175820878,-0.0072405648378531685,0.8042188901695503,0.8043454473852683
337,17807607,0.15229274601485024,-0.11304228672952682,10.07351435837694,0.06326393141454595,-0.03701863716746796,4.036294922133756,0.01236945072634136,-0.00728454297880812,0.8090140085370452,0.809141355936563
338,17808800,0.14925873333670317,-0.11565155353451456,10.077646662623163,0.06344199708341663,-0.03715660947083464,4.048317554602265,0.012445137028861875,-0.007328870813906826,0.8138436513796857,0.8139717947656991
339,17809963,0.14717716728663552,-0.1171404718162149,10.081723435222477,0.06361316412897099,-0.0372928438395569,4.060042598957429,0.012519119138743868,-0.007372242391292231,0.8185654809222732,0.8186944026066127
340,17811162,0.1462587482542977,-0.11727569967940514,10.085353767722433,0.06378852836812789,-0.03743345740347251,4.072134938124928,0.012595601584257253,-0.007417125106718994,0.823447970713085,0.8235776972427166
341,17812354,0.1466843808158192,-0.11602073237356093,10.088340475566483,0.06396337615006034,-0.03757175411646179,4.084160239971803,0.012671845928628125,-0.007461910637625816,0.8283162897191313,0.8284468188143828
342,17813550,0.1484460961039605,-0.11355505330112449,10.09083053920902,0.06414091768100068,-0.03770756596020994,4.096228873296697,0.012748558466174603,-0.007507008886514227,0.8332153794515942,0.8333467162472362
343,17814750,0.15132473329353877,-0.11027975980944711,10.093186894287358,0.06432250736095292,-0.03783990167198127,4.108340697569842,0.012825745475007746,-0.007552416768520605,0.838145388288678,0.8382775379643749
344,17815944,0.1549548101423048,-0.10675715016586872,10.09578010045072,0.06450752340426283,-0.03796736970927932,4.12039505900978,0.012902767457952435,-0.0075977498079534845,0.8430651399891357,0.8431981009674531
345,17817129,0.15884400217973216,-0.10355985283497823,10.098884828897466,0.06469575354684581,-0.03809008813488877,4.132362237532024,0.012979431925905447,-0.007642886562393328,0.8479619892406112,0.8480957578982571
346,17818351,0.1623852257985609,-0.10112585535574864,10.102566900752766,0.06489418829277166,-0.03821366393013349,4.144707574284744,0.013058732623999215,-0.007689583659715951,0.8530268218963871,0.8531614261493867
347,17819540,0.16495552588737264,-0.09968866434353799,10.106543465712331,0.06509032041305174,-0.03833219375203796,4.156724254465476,0.013136125014970334,-0.007735160638087124,0.8579691670349465,0.8581045869083477
348,17820703,0.1660609591143735,-0.09927007962592703,10.1102047086447,0.06528344930850176,-0.038447644854642915,4.168482422541629,0.013212049666516122,-0.0077798752490530745,0.8628171120923624,0.8629533322461219
349,17821884,0.1654263984507499,-0.0997204101922324,10.112821536948248,0.0654788178850721,-0.03856541465907994,4.180425664776765,0.013289380150438393,-0.007825421003765447,0.8677541948024639,0.8678912301872519
350,17823095,0.16301539973459253,-0.1007771391562345,10.113806728575979,0.06567622953415068,-0.038687455774598145,4.19267348472507,0.013368914064404248,-0.007872271512708485,0.8728315223924659,0.8729693963730807
351,17824266,0.15903648899700681,-0.1021136107917043,10.112967487820974,0.06586246126276618,-0.03880703081283523,4.204515769653308,0.013446039006542948,-0.007917714545790315,0.8777550103587299,0.8778936976527671
352,17825477,0.153954046667284,-0.10340801675199153,10.110640483246346,0.06604889961328027,-0.03893225792112189,4.216759755278519,0.013526024223974632,-0.007964861510132794,0.8828615064223723,0.8830010372998232
353,17826676,0.14845973497279352,-0.1044410569022804,10.10755009203123,0.06622690283551265,-0.03905748274834773,4.228878707838865,0.013605430280474411,-0.008011691431948062,0.8879319319930711,0.8880723004269784
354,17827879,0.14335931768688226,-0.10514653977035746,10.104481186787895,0.06639936409468997,-0.03918397403569147,4.241034398706571,0.013685308715480323,-0.008058829752713,0.8930338963747151,0.8931751074038207
355,17829071,0.13938566678484696,-0.10556641086479557,10.102021071738106,0.0665655118094975,-0.03930980919744231,4.253076007824083,0.013764654805557244,-0.00810568704527635,0.8981035629760414,0.8982456110188641
356,17830274,0.13703087308502526,-0.10575865756182949,10.10045030546913,0.0667303599498188,-0.039437036862489186,4.265226849541562,0.013844931428576875,-0.008153129800621925,0.90323463087604,0.9033775257695886
357,17831468,0.1364933680261303,-0.10573546383415897,10.099747158658163,0.066893333031242,-0.039563285006307174,4.277285947648999,0.013924802068216178,-0.008200368362919456,0.9083417102975329,0.9084854477756777
358,17832662,0.1377263301955884,-0.1054545491098832,10.099699431417244,0.06705777826949552,-0.039689197737944375,4.289344988770112,0.014004869055469955,-0.008247757265018562,0.9134631882141244,0.9136077703694712
359,17833847,0.14050160442406126,-0.10482127200050557,10.100049779501934,0.06722427267073804,-0.03981341094526497,4.301313547758822,0.01408452981858478,-0.0082949361569887,0.9185602447682186,0.9187056673465712
360,17835054,0.1444404371098465,-0.10368849967547006,10.100555680027059,0.06739861227832962,-0.039938562964373266,4.313504918464615,0.014165879943604723,-0.0083431420024867,0.9237666452048054,0.9239129260736594
361,17836241,0.14903155079131591,-0.10191030283340577,10.100979956316376,0.06757551272911891,-0.040059530493836516,4.325494781672762,0.014246092077214187,-0.008390692665182884,0.928901007510651,0.9290481347148685
362,17837459,0.15369756849235922,-0.09943757067386488,10.101112151547726,0.06776271636754261,-0.040180645454917285,4.337797936273347,0.014328627065749854,-0.008439632691346973,0.9341844453970319,0.9343324434992688
363,17838644,0.1579549261045098,-0.09635244215449831,10.100810122052662,0.06794989295497646,-0.040294823098870364,4.349767396267979,0.0144091476889015,-0.008487382056719135,0.9393389197616095,0.9394877675468717
364,17839839,0.16159868445872372,-0.0928229662963507,10.099985614911725,0.06814300338290463,-0.0404057465435945,4.361836879077798,0.014490578577944072,-0.00853566692383873,0.9445513148321075,0.9447010219262079
365,17841028,0.16473362489723156,-0.0890550538556365,10.098558716479035,0.06833887166290745,-0.040511633002628854,4.373844065391692,0.014571833496351268,-0.008583835255478857,0.9497518154258583,0.9499023799653584
366,17842214,0.16758664474146093,-0.0852740527661873,10.09647443102339,0.06853762942357082,-0.04061276802920955,4.385818484066886,0.014653119124847623,-0.0086320019983615,0.9549533961479616,0.9551048184220998
367,17843457,0.17026012209587493,-0.08171977692547835,10.093786832281337,0.068749262755336,-0.04071434571192792,4.398365061099411,0.014738574458452506,-0.008682609930081426,0.9604205639189082,0.9605728878594164
368,17844632,0.1726153114179586,-0.07864533942301438,10.09071932717582,0.0689520857462521,-0.04080675398574996,4.410221656308843,0.014819593159204352,-0.008730557866014682,0.965602574365071,0.9657557530776137
369,17845823,0.17432524534587215,-0.07629550034142686,10.087656568645599,0.06915970711345903,-0.0408976219266566,4.4222360552821,0.01490196237037648,-0.008779266933729329,0.970869457506912,0.9710235051378249
370,17847013,0.17502650946703668,-0.07484334028313668,10.085101092714394,0.06936798865972481,-0.04098668550159353,4.43423732558243,0.014984510276881554,-0.008828041089476225,0.9761461999243551,0.9763011182439947
371,17848216,0.17449591582596938,-0.07433208763769172,10.083596744317456,0.06957790724646346,-0.041076107003021674,4.446367892465844,0.01506821249929905,-0.00887745564620086,0.9814951804989915,0.981650981555778
372,17849397,0.17276832443734888,-0.07468759009815543,10.083613503955704,0.06978194663762396,-0.041164313046927595,4.458276640014016,0.015150624978278083,-0.008926070699909281,0.9867604052108481,0.9869170752739307
373,17850680,0.17011210011356215,-0.07577954772464866,10.085444710323095,0.07000020046206966,-0.041261538206658316,4.47121626557736,0.015240435235470919,-0.008979009253428424,0.9924969756795838,0.9926545925982815
374,17851932,0.16689885234768004,-0.07744468410422806,10.089130307197804,0.07020915782520895,-0.04135849895115681,4.4838478567219715,0.01532833710106808,-0.009030790094115271,0.9981107531961998,0.9982692966999903
375,17853147,0.16349936554121167,-0.07943952138843358,10.094401682074336,0.07040780955434152,-0.04145501796964375,4.496112554765692,0.015413882589676605,-0.009081157940948388,1.0035735299502402,1.003732975060012
376,17854198,0.16025725954541567,-0.0814023584737856,10.100715280015667,0.07057623993412375,-0.0415405718483997,4.506728406524989,0.01548805821784737,-0.009124817081961056,1.008310101505498,1.0084703282854517
377,17855174,0.15746839483137423,-0.0829229619748873,10.107379572408822,0.07072992908747917,-0.04162150465928719,4.5165932089876595,0.01555709062863675,-0.009165439670508521,1.01271829647747,1.0128792506382043
378,17856408,0.155312943781213,-0.08369711610543641,10.113669790215756,0.0709215852601052,-0.0417247869005613,4.529073477508786,0.01564460786484772,-0.009216928057543814,1.0183071731487157,1.018469049310872
379,17857618,0.15381337729930014,-0.08363705410194776,10.118886226487302,0.07110769944663735,-0.04182598773602465,4.541317329842835,0.01573064818117815,-0.009267537502704403,1.0238021671178255,1.023964949565521
380,17858831,0.15288796404405486,-0.08286153586819732,10.12241131305313,0.07129315254702279,-0.041926498779032775,4.553595814765568,0.015817126775217686,-0.00931839434572337,1.029325678841136,1.02948937201623
381,17860034,0.15243113030389357,-0.08162337322229236,10.123807123911288,0.07147652719677837,-0.042024691697019195,4.565774754735633,0.01590311303743541,-0.009368950049834885,1.034818305871083,1.0349829043975636
382,17861225,0.1523430674255022,-0.08024684923795514,10.122917555912139,0.07165796779008214,-0.0421202656944616,4.577831149544725,0.0159884576770734,-0.009419115286276989,1.0402705027701906,1.040435999687349
383,17862414,0.15253684033056053,-0.07904992159864913,10.119912123773396,0.07183933409323517,-0.0422142560512424,4.5898637250598915,0.016073874645310255,-0.009469308036721916,1.0457278507392869,1.04589424659122
384,17863613,0.15296929458330974,-0.07823192482438873,10.115249944421976,0.07202274427744056,-0.04230805612910684,4.601991909743253,0.016160229915698907,-0.009520035396020716,1.051245639039069,1.0514129434734623
385,17864807,0.15367829108322295,-0.0777960815671693,10.109570328369974,0.07220623615699392,-0.04240094465049804,4.614062736715327,0.016246444161670356,-0.009570662123933411,1.056754829946707,1.0569230412556454
386,17866025,0.1547794971518094,-0.0775765291177265,10.103536699901731,0.07239475758452484,-0.04249543286296343,4.626368844415807,0.016334620976408306,-0.0096224215611605,1.0623897471992056,1.0625588858002815
387,17867224,0.1564067116295325,-0.07737207694362412,10.0976846093903,0.07258228923176864,-0.04258820198321883,4.638475968262465,0.016421647141197197,-0.00967348481533838,1.0679512798851523,1.06812133346902
388,17868413,0.15860990423026375,-0.07710286383699859,10.092345648279082,0.07277087640789842,-0.042679877288321025,4.6504757672382695,0.01650817171324619,-0.009724231189434194,1.0734806955723986,1.0736516586733986
389,17869612,0.16126170762625763,-0.07687103654992777,10.087724810111299,0.0729642291953423,-0.04277204566114439,4.662570949285593,0.016595655824051404,-0.009775514872181906,1.079071118140592,1.0792430006668723
390,17870786,0.16405950497886326,-0.07690230404182014,10.084067565490244,0.07315683505418749,-0.042862328966089484,4.674409644607478,0.01668154194840502,-0.009825835246388095,1.0845588750633612,1.0847316600702541
391,17871968,0.1666225225718968,-0.07743446424877296,10.081706700155264,0.07335378287586747,-0.04295385650283153,4.686326221927062,0.016768246119764293,-0.009876606704774442,1.090098112657679,1.0902718086136904
392,17873162,0.1685742618727237,-0.07861502892010394,10.08092920031709,0.0735550605445435,-0.043047722847362135,4.698362851392241,0.016856070862054477,-0.009928005685854191,1.0957079579022413,1.0958825764798457
393,17874368,0.1695750844705351,-0.08046468346428298,10.081824162233731,0.07375956809641497,-0.04314476325562006,4.710521531331895,0.016945024901178753,-0.009980038270340469,1.1013888468690276,1.1015643998606097
394,17875555,0.1693486956861006,-0.08291618579432518,10.08421866391518,0.07396058499819437,-0.04324318476815792,4.7224914988859625,0.01703281611557161,-0.010031367930660272,1.1069944442782051,1.1071709194294255
395,17876780,0.16772246654367182,-0.08585183086541445,10.087677144591344,0.07416604501971037,-0.04334835326096806,4.7348489033880865,0.017123669520720756,-0.010084469663404958,1.1127946341848556,1.1129720636461875
396,17877850,0.16470440374796,-0.08909174059749311,10.091583463375308,0.0743422787317207,-0.043443681423407376,4.745646897693898,0.0172032157589637,-0.010130954402528003,1.117872476365388,1.1180507413730563
397,17878835,0.16055594743704604,-0.09238249809085025,10.09533518778636,0.07450042633994619,-0.04353467818402686,4.755590802853868,0.017276598678908545,-0.01017383606053927,1.122556733306199,1.1227357691341198
398,17880012,0.15576608568555544,-0.09544983332238469,10.098531082500834,0.07468376302279808,-0.04364702263784731,4.767476773937971,0.017364501467986376,-0.010225208606184016,1.128168053469124,1.1283480126585876
399,17881190,0.15095916902685597,-0.09809797253196575,10.101000944157093,0.07486159292391172,-0.04376258204948997,4.779375753050188,0.017452688424450743,-0.010276760927838314,1.133798158106217,1.1339790436659134
400,17882394,0.14682279171856008,-0.10025129620159876,10.102706998503646,0.07503836756514086,-0.043883284610116695,4.791539412276387,0.017543034618999174,-0.010329596402508894,1.1395671715585978,1.139749006193708
401,17883618,0.14402887725798472,-0.10188863024828261,10.103659502862723,0.07521465891090463,-0.044007996293540595,4.80390629150789,0.017635097361506123,-0.010383462189972189,1.1454471528594035,1.145629954627459
402,17884819,0.14311291957732447,-0.10295834996784253,10.103898043882285,0.075386537527317,-0.04413164927185197,4.816041073058593,0.01772563659307643,-0.010436464300747683,1.1512312181881468,1.151414971116276
403,17886009,0.14438640312628323,-0.10335738474470069,10.103509005749565,0.07555835734703728,-0.044254644559698166,4.828064248775435,0.017815551038319406,-0.010489127327773724,1.1569766146441895,1.1571613122138273
404,17887223,0.1479315047226182,-0.1029601755225422,10.102659905520841,0.07573794619377054,-0.044379638212782534,4.840328877900737,0.017907496904998644,-0.010543004208564043,1.162852773901961,1.163038437522436
405,17888415,0.15359739134274386,-0.10167686119567981,10.101593926175964,0.0759210342842511,-0.04450083703132778,4.852369977860739,0.01799799477786547,-0.010596049206305386,1.168636798915571,1.168823413460921
406,17889611,0.16094937835525952,-0.0995424131154539,10.100555247597379,0.07611352974076398,-0.044619889757413864,4.864450241936866,0.018089026559435423,-0.010649414594455254,1.1744546814049275,1.1746422525973694
407,17890799,0.16924789354642167,-0.09677153367105315,10.099749954552802,0.07631459623829713,-0.04473485433941508,4.876448744882874,0.01817968829976652,-0.010702559601410479,1.1802479025138484,1.1804364265969756
408,17891987,0.1775360529526081,-0.09369609350170788,10.099376885447962,0.07652550906920483,-0.044846165298495104,4.888446804622786,0.018270600604540735,-0.01075583684578509,1.1860553773177402,1.1862448570750606
409,17893178,0.1848237953240699,-0.0906499165612682,10.09958849870876,0.0767456342094358,-0.044954129349119576,4.900475414524748,0.018362004654884172,-0.010809377213839892,1.1918918435364392,1.192082284298944
410,17894382,0.19028578799857224,-0.08793034481309378,10.100378566430848,0.07697473829818607,-0.04505999748427454,4.912636270318731,0.018454682239795187,-0.01086362945081096,1.197806657605903,1.1979980729310216
411,17895605,0.19340121583305075,-0.08582044010252446,10.101580939816829,0.07721126798514989,-0.04516495588251993,4.924990503808127,0.018549111620541025,-0.010918866191855281,1.2038299209920604,1.2040223294675965
412,17896819,0.19400897377097737,-0.08456969634263997,10.10299705135158,0.07744679487930786,-0.045267623493879895,4.937255542228468,0.018643132029524504,-0.010973821086776851,1.2098237492203259,1.2100171466961287
413,17898007,0.19225825898625074,-0.08431455747871727,10.104468334781782,0.07767519769098352,-0.045367789188164614,4.9492596506101885,0.01873541016438139,-0.011027718020332391,1.2157034696852507,1.215897837963174
414,17899199,0.18848153347814434,-0.08501213509822737,10.105821094470523,0.07789986767888947,-0.0454691236532017,4.961305789354797,0.018828266806654628,-0.011081917215727008,1.2216173461861617,1.2218126914642191
415,17900396,0.18310169557736572,-0.08645429600454024,10.1068119383916,0.07811904040849557,-0.045572609445519136,4.973403643245051,0.018921775298023597,-0.011136467629233295,1.227570510347126,1.2277668395772827
416,17901596,0.17662785941994924,-0.0883354866899545,10.107181441640407,0.07833099383979951,-0.04567861202954708,4.9855322609750194,0.019015772490631355,-0.011191281963668752,1.233553149060296,1.2337504674576536
417,17902803,0.1696587516885892,-0.09030056112056171,10.106776657445495,0.07853577195308764,-0.0457876048068196,4.997731140400556,0.019110565167378732,-0.011246547602670583,1.2395854105467594,1.239783726532323
418,17904007,0.16282957755702235,-0.09197296556268054,10.10565593534624,0.07873181876446629,-0.04589834025735707,5.009898350146713,0.01920535827717115,-0.01130180920434044,1.245617328160336,1.245816641761997
419,17905200,0.1567195356442413,-0.0930135656188605,10.104111491584382,0.07891878517048988,-0.04600930544114037,5.021952555156173,0.019299508387879544,-0.01135669830573172,1.2516085175586373,1.2518088220034842
420,17906401,0.1517211901125845,-0.09320308695538793,10.102587208504378,0.0791010023198151,-0.04612124234857379,5.034085762393587,0.019394508691665643,-0.011412089917792356,1.257654454559272,1.2578557587563302
421,17907624,0.14790910525909845,-0.092482845495129,10.101531901559204,0.07928189515554697,-0.04623434886861433,5.046439935909193,0.019491470449440877,-0.011468634526458672,1.263826250600889,1.264028575114536
422,17908825,0.14504802115928406,-0.09092881518359648,10.1012529035258,0.07945609782895927,-0.046343554375649826,5.058571540646327,0.01958689722293346,-0.011524293135263828,1.2699015950212054,1.2701049235840678
423,17909995,0.1427709186892317,-0.08871087298271423,10.10183511021862,0.07962313980382567,-0.0464473460970396,5.070390687725284,0.019680056296503934,-0.011578636530197363,1.275833952125844,1.2760382607260576
424,17911197,0.1407672354215653,-0.08607211430758605,10.103148844920186,0.07979234202080239,-0.046550804778437316,5.082534672636878,0.01977596669161294,-0.011634590597541045,1.2819431588023535,1.2821484761747044
425,17912409,0.138876853919781,-0.08331257529804605,10.104920091311167,0.07996066076775317,-0.04665177961969855,5.094781835787547,0.019872879012463457,-0.011691132554440119,1.288118034387328,1.288324370806717
426,17913635,0.1371075576667837,-0.08076185066975135,10.106875447760483,0.08012875463345265,-0.046750793648619664,5.107172865086501,0.01997111686564407,-0.011748449027453327,1.294379428319924,1.2945867974072751
427,17914810,0.13560105494877567,-0.07872336818277456,10.108928797552913,0.08028808587301746,-0.046843293606234425,5.119050856423626,0.020065455366544867,-0.011803489897440653,1.3003943130762217,1.3006026735147842
428,17916008,0.13457427504496483,-0.07739351776307868,10.111232267652348,0.08044930585452133,-0.04693601104051459,5.131164112680273,0.020161833634958583,-0.01185971923866719,1.3065414476832127,1.306750820543109
429,17917223,0.13426047349764472,-0.07681218529396719,10.114011481584862,0.08061243232982096,-0.04702933784564676,5.143452636630399,0.020259777740239314,-0.011916859884149651,1.3127907426367187,1.313001143981318
430,17918434,0.13484609869707578,-0.07688639200651996,10.117344397136431,0.08077573095534311,-0.047122447266366656,5.155704740695331,0.020357597150426236,-0.011973925167789222,1.3190343010777008,1.319245729219997
431,17919635,0.13640877143199454,-0.07744328860733585,10.12104575582171,0.08093955788983294,-0.04721545665598407,5.167860116648073,0.020454805559451925,-0.012030630931233058,1.3252409010777952,1.3254533492509515
432,17920820,0.138878021663694,-0.07824293875530364,10.124692942882374,0.08110412834550441,-0.047308174538409103,5.1798578777853885,0.02055091395154135,-0.012086691118061073,1.3313790326629709,1.3315924890074347
433,17922000,0.14201828028612448,-0.07897364036520686,10.127777342558248,0.08127170991624204,-0.04740136343404005,5.191808655049607,0.020646814569242514,-0.01214262472691324,1.3375053668759294,1.3377198289286998
434,17923188,0.1454465394483847,-0.0793232650299727,10.129893889130487,0.08144450040510672,-0.04749559947289566,5.203842968989894,0.020743570635723782,-0.01219904949908704,1.3436875323230895,1.3439030087963617
435,17924360,0.14871940594869745,-0.0791312639935921,10.13081607772293,0.08161879954887859,-0.04758834131429615,5.215716285432985,0.02083922786879507,-0.012254823035107396,1.3498003518096169,1.3500168309510645
436,17925550,0.15145551737169158,-0.07849070701589615,10.130406152243415,0.0817990316145509,-0.047681745255645065,5.227771468754155,0.020936568716416384,-0.012311564311961613,1.3560213998574344,1.3562388990870085
437,17926746,0.1534099416504833,-0.07768790616993194,10.128500908370485,0.08198250990476488,-0.0477746599914243,5.239885155840566,0.02103461979826248,-0.012368702805311356,1.3622883025038197,1.3625068290389895
438,17927927,0.15448972472252775,-0.07702389632661527,10.124944998827576,0.08216496226966219,-0.047865625212986034,5.251842715884182,0.021131656618702952,-0.012425232108687893,1.3684907287512789,1.3687102717458548
439,17929091,0.15476637100802154,-0.07666686778857203,10.119757116977176,0.08234511032551553,-0.04795486544709193,5.263622113168344,0.02122750632712185,-0.012481051572068308,1.3746175848910067,1.3748381316957996
440,17930278,0.15448789946442815,-0.07662729218092545,10.113265607866492,0.0825284874621798,-0.04804582204291069,5.2756265594448815,0.021325467641739457,-0.012538081962833243,1.3808797536170678,1.381101326123098
441,17931456,0.15402215870395977,-0.0768227946747704,10.106113426390705,0.08270992556513307,-0.04813631929503757,5.2875315610611695,0.021422899934055183,-0.012594786546962798,1.3871084657959978,1.3873310582455345
442,17932661,0.1537267970412477,-0.07715333077099247,10.099142335462709,0.08289516635556778,-0.04822928905861661,5.299701027575402,0.021522788609513642,-0.01265290284027843,1.393494605534226,1.3937182434167976
443,17933839,0.15382834452964822,-0.07754503891250063,10.093215416748688,0.08307637614542371,-0.04832063711445554,5.311590835336332,0.02162065258061295,-0.01270982455079926,1.3997516595382522,1.3999763214562648
444,17935025,0.15435601153145442,-0.07796331375076784,10.089059061385377,0.08325944237510001,-0.048413101604563955,5.323556459383135,0.02171939827926982,-0.012767242489302272,1.4060653974990807,1.4062910924793066
445,17936178,0.1551259414626178,-0.0784016785497001,10.087158486320291,0.0834383025856064,-0.04850349873993176,5.335186953117862,0.021815602642151023,-0.012823167023349414,1.4122168680560256,1.412443569334053
446,17937367,0.1557791248312358,-0.07885748788371483,10.08768216828262,0.08362352396503074,-0.048597260293025496,5.34718120721595,0.021915031012145446,-0.012880949165837822,1.4185746665114054,1.4188024076324444
447,17938563,0.15588273913255873,-0.0793228611779533,10.090429783883916,0.08380995972103328,-0.048692130434994325,5.359249361237476,0.0220152677239718,-0.012939184953838076,1.4249843287474455,1.4252131179918446
448,17939748,0.15507483322246388,-0.07980368659022222,10.09481977897115,0.0839937233984019,-0.048786697803603736,5.3712117226755565,0.022114800286198905,-0.012996997190735346,1.431349214638816,1.4315790444732104
449,17940946,0.15318759370584548,-0.08034577427035118,10.09995100113367,0.08417724213566151,-0.048882952041179616,5.3833114639749144,0.022215644622277427,-0.01305555896728068,1.437798421772658,1.4380293057298512
450,17942137,0.1503008414303988,-0.08103558233349911,10.104789042275014,0.08435625043780512,-0.04897946541973881,5.395346267724264,0.022316112916548853,-0.013113893510595588,1.4442242791775177,1.4444562131350787
451,17943315,0.146733090381418,-0.08196297706014513,10.108406694361662,0.08452910201827443,-0.049076017806715666,5.407253970810222,0.022415688198726382,-0.013171705059571898,1.450594024355132,1.4508269987791158
452,17944499,0.14297875635301174,-0.08318451993699748,10.110097091832703,0.08469838886579639,-0.04917450827832107,5.419224325766952,0.022515971091143484,-0.01322992767737343,1.4570103859568402,1.457244408027228
453,17945667,0.1395761723545754,-0.0847277420984862,10.10935943647057,0.08486141383510654,-0.04927347028109211,5.43103205758875,0.02261508922250289,-0.013287479090661747,1.4633538314001038,1.4635888887370283
454,17946874,0.13694024589812687,-0.08660242862312487,10.105952224831858,0.08502670071190557,-0.04937799941244022,5.4432299419241215,0.02271771645026216,-0.013347078335952563,1.4699238099400063,1.4701599389758124
455,17948050,0.1352588309467989,-0.08877738090231449,10.100046477732988,0.085185765097099,-0.04948240161238134,5.455107596581936,0.02281789491001635,-0.013405269640248723,1.4763390164735866,1.4765761914457545
456,17949240,0.1344987875731221,-0.09115706044490209,10.092300755820274,0.08534581865431103,-0.04959087851431077,5.467117434481362,0.022919456434214978,-0.013464282785680752,1.4828448862206194,1.4830831214010947
457,17950412,0.13448443877270969,-0.09359789602543236,10.083753016153711,0.08550343441655264,-0.04970057524845258,5.478935593016294,0.023019666459351176,-0.013522531859871938,1.4892661987356344,1.489505479885283
458,17951603,0.13501229150549962,-0.09594751880435912,10.07558725854745,0.0856642340557357,-0.04981484874334857,5.490935617441224,0.023121692562111558,-0.013581861344725266,1.495805903056007,1.496046249031667
459,17952852,0.1359549005739057,-0.09807118835320375,10.068899763578603,0.08583404172655251,-0.04993733965760172,5.503511673245933,0.023228899280228022,-0.013644233081957611,1.5026797891358912,1.5029212539370291
460,17954086,0.13729053941563668,-0.09984697495820205,10.064546316329972,0.08600345825219141,-0.050060550824700144,5.5159313234002845,0.023335027547711225,-0.013706007801675291,1.5094864483889672,1.5097290207287035
461,17955275,0.13908014777959946,-0.10113987256668575,10.063051010194984,0.08616882454790135,-0.05018080613318193,5.527896291051406,0.02343748228009868,-0.013765672780167645,1.5160591170790272,1.5163027586208369
462,17956339,0.14146004036483903,-0.10179069335501438,10.06455439617821,0.08631933803084954,-0.050289111430911665,5.53860497692894,0.023529326055763505,-0.013819180394730136,1.5219521927744797,1.5221967928038962
463,17957329,0.1446248705275923,-0.10165433776705175,10.068850001469354,0.08646251665267185,-0.050389749225301046,5.5485731384303945,0.02361492394724965,-0.013869066246463184,1.5274452801815257,1.5276907735469252
464,17958981,0.1487336291352987,-0.10066854345895501,10.075504097591978,0.08670822460800337,-0.05055605365909524,5.565217871199616,0.02375816593430207,-0.01395258484710801,1.5366390201047475,1.536886008518835
465,17960210,0.1537570936075494,-0.0988918430374433,10.083933264402125,0.08689719207604704,-0.05067759173418826,5.577611025181566,0.02386496258336353,-0.014014867607349327,1.5434939040546956,1.5437420072043004
466,17961388,0.15936265424027538,-0.0964972044278154,10.093376684647124,0.08708492128274209,-0.05079126544100423,5.589501022916081,0.0239675486206346,-0.014074699718038831,1.5500783362596906,1.5503275102702156
467,17962572,0.16493876362238633,-0.09374980071760397,10.102882398034797,0.087280208778871,-0.05090226520505387,5.601462835675354,0.024070888387828785,-0.014134968000041616,1.5567104682571302,1.5569607210747083
468,17963753,0.1697854277548775,-0.09096781303447689,10.111429367088824,0.08748072536904951,-0.05100969819224759,5.613404433757887,0.024174203124489632,-0.01419521045360666,1.5633398988933982,1.5635912303311716
469,17965055,0.17336417200131854,-0.08846024480514696,10.118132623786751,0.08770644552099523,-0.051124873430983896,5.626578242434057,0.02428839691655797,-0.014261775038813802,1.5706657037650473,1.5709182274821898
470,17966256,0.17543846065649962,-0.08646774593214956,10.122412193019118,0.08791714711224369,-0.05122872119384841,5.6387352594778735,0.024393985410239773,-0.014323300732967614,1.5774378248116803,1.5776914510178115
471,17967436,0.17604038885995618,-0.08513950749960583,10.12408874227998,0.08812487477109844,-0.05132918581269794,5.6506816841937635,0.02449797276246967,-0.014383869172226598,1.584105629199029,1.584360341217201
472,17968599,0.17536009818125883,-0.08456537905909021,10.123387623324131,0.08832881856528324,-0.05142753534854366,5.66245518399969,0.024600699178461093,-0.014443679395836954,1.5906910645780206,1.5909468492702437
473,17969789,0.17367349276369745,-0.08482976840671408,10.120814090705302,0.08853549002167203,-0.05152848277294765,5.674498952767629,0.024706056411586883,-0.014504998290336761,1.597443718331814,1.5977006031909067
474,17970966,0.17131544349546934,-0.08599418578365947,10.116957244917042,0.0887371282986662,-0.05162969792961502,5.686406611444896,0.024810500011594412,-0.014565766444799918,1.6041366189134847,1.604394594419383
475,17972154,0.16864528665859452,-0.08798719443514201,10.112354921062822,0.08893747889921662,-0.051734226716603965,5.698420089091119,0.02491615773652668,-0.014627226706139244,1.610906341979325,1.6111654208388022
476,17973340,0.16598967022429803,-0.09051915150061235,10.107459729751904,0.08913434264810263,-0.05184158243028369,5.710407536330605,0.02502187106690733,-0.01468871082290156,1.617678885317413,1.6179390681540253
477,17974522,0.1635943832713524,-0.093123101018976,10.102637726986586,0.08932771120912937,-0.05195165393568812,5.722348854123903,0.02512745642155652,-0.014750117677853544,1.6244427016629877,1.624703987200091
478,17975686,0.1616150569879263,-0.09529512695038966,10.098156844633905,0.08951583113546331,-0.052062577463458375,5.734103108691057,0.025231652848998202,-0.01481071851802101,1.631117197681504,1.6313795714857027
479,17976861,0.16013464461632096,-0.09665185122457398,10.09419553701956,0.0897039893428875,-0.05217614338864725,5.745963788447055,0.025337055036476094,-0.01487202548650267,1.6378687051329293,1.6381321798785993
480,17978069,0.15916597333612492,-0.09703941004508003,10.090881211513008,0.08989626183867754,-0.05229336699598171,5.758153572950563,0.025445649720777216,-0.014935195873833816,1.6448245546490536,1.6450891637664993
481,17979258,0.15863230419275373,-0.09655079446789175,10.088289998972606,0.09008487564836272,-0.05240816589060403,5.770148549759341,0.02555276063792312,-0.014997509183077745,1.6516852612747175,1.6519509893365623
482,17980300,0.15834784390167658,-0.09545316969351704,10.086400286549958,0.09024987410170826,-0.05250762809342467,5.780658578857926,0.0256468010067371,-0.015052222131551093,1.6577087075138874,1.6579754180205266
483,17981281,0.15801263955852907,-0.09408643897630338,10.085122714411206,0.09040488450111518,-0.052599926890060426,5.790552084240764,0.025735488198432695,-0.015103822659830242,1.6633892391085277,1.663656876159804
484,17982509,0.15726043141303717,-0.09279536451530267,10.084423702510477,0.0905980003108904,-0.05271387959768522,5.802935756547447,0.02584674254281447,-0.015168555303976199,1.670515244217568,1.6707840435955106
485,17983678,0.15577480747196173,-0.09189977858875276,10.084386780046545,0.09078010106082512,-0.05282131043885547,5.814724404693321,0.025952864480954574,-0.01523030341587922,1.6773126570466543,1.6775825651233427
486,17984878,0.15340161152373524,-0.09166788234312451,10.085141433106788,0.0909641829946536,-0.05293131189766722,5.826826574413049,0.02606202150054816,-0.015293820990156422,1.68430484893595,1.6845758973920788
487,17986069,0.15019354007718813,-0.09226508560445276,10.086759136967588,0.09114306350088554,-0.05304119961462212,5.8388399045451775,0.026170572889177714,-0.015356993058897437,1.6912589072622632,1.6915310897276181
488,17987266,0.1464003310059969,-0.09370098701654626,10.089231386439005,0.09131830469709971,-0.053153359696080926,5.850916714514745,0.026279880899900143,-0.015420617630453645,1.6982624545695373,1.6985357788956839
489,17988456,0.14243677808977273,-0.09582617360745029,10.092497030766006,0.09148780446302654,-0.053267392842673796,5.862926785981356,0.026388751387211144,-0.015484005827936426,1.7052393374448551,1.7055137990076843
490,17989654,0.13883533922948046,-0.0983667704235213,10.096400244258483,0.09165412919942345,-0.05338523623364117,5.875022273473978,0.026498553033992053,-0.015547961340944329,1.712277614128477,1.712553222606604
491,17990859,0.1361719493813321,-0.10094176256681867,10.100622940637242,0.09181821639842795,-0.05350687105753419,5.887193524117446,0.026609193984752158,-0.015612437120568657,1.7193716823250385,1.7196484464502027
492,17992055,0.13497152841182464,-0.10308070810439626,10.104715218257718,0.0919796423464085,-0.05363015558442705,5.899278763518483,0.026719201636998462,-0.015676578786647632,1.7264272197262065,1.7267051328672571
493,17993255,0.1356241265198807,-0.10430455296835314,10.1081902430626,0.09214239129823236,-0.05375532104798907,5.911408591810158,0.02682977250655634,-0.01574108517190522,1.7335209100363786,1.7337999780795064
494,17994468,0.1383146647811591,-0.10427258358352279,10.110620351472999,0.0923101669866119,-0.05388180369187589,5.923672774296494,0.0269417447391111,-0.015806443799783465,1.7407063251116004,1.7409865627162997
495,17995665,0.1429560406580512,-0.10292893290246338,10.111749256449192,0.09248128536727959,-0.05400500962456014,5.935776538156464,0.027052444837695734,-0.015871087796304063,1.7478114496277737,1.7480928435439218
496,17996856,0.1491653300264796,-0.10055233520480161,10.111580061282227,0.09265894127534113,-0.054124767455789057,5.947819430009451,0.027162801636754667,-0.015935550394343908,1.754895302568915,1.755177849261314
497,17998047,0.1563118837145977,-0.09765632955004067,10.11035272318307,0.09284510872884522,-0.054241076144283154,5.959860860102762,0.02727338016125072,-0.01600015151603175,1.7619934968532973,1.7622771987026522
498,17999236,0.16358471858941687,-0.09480114054605146,10.108422326287325,0.09303961095924804,-0.05435379470039241,5.971879774248718,0.027384004258681267,-0.016064778177930516,1.769094061904879,1.7693789194670115
499,18000445,0.17008811243468572,-0.09243462316224157,10.106138628555595,0.09324524748718158,-0.054465548159795554,5.984098095850642,0.02749673776289327,-0.01613062702565571,1.7763288365027623,1.7766148719143098
500,18001640,0.17507981390083333,-0.09082126068584491,10.103791193663376,0.09345446786479307,-0.05457407956631514,5.996172126327069,0.027608415851991697,-0.016195843050737454,1.783494262193723,1.7837814645398449
501,18002824,0.17825472460122313,-0.0900465860530011,10.101610597447571,0.09366552145872092,-0.054680694724201895,6.008132433274447,0.027719315829398822,-0.01626058499329091,1.79060789099472,1.790896252267823
502,18003993,0.1797734268078142,-0.09005764594762079,10.099781345140554,0.09387567659465926,-0.05478597211231467,6.019939077666916,0.027829056495337977,-0.016324629794690206,1.7976451997765126,1.7979347079921706
503,18005165,0.18002006409240046,-0.09070050959809756,10.098437189698409,0.09408666010977555,-0.054892273109563634,6.031774446053243,0.027939326060986633,-0.016388963538774615,1.804714439427287,1.8050051002542802
504,18006366,0.1793625309195181,-0.0917405302554147,10.097655315559601,0.09430207450940989,-0.055002453486400385,6.04390173008723,0.028052582852472432,-0.01645502148541178,1.8119731654051217,1.812265010224784
505,18007526,0.1780487361690759,-0.0928845301498146,10.097476225060301,0.09450861104336601,-0.05511019954137417,6.0556148025083,0.028162212841282737,-0.016518949316879774,1.8189976785760313,1.819290669624742
506,18008740,0.1761963674059251,-0.09383994534817523,10.097961816169038,0.0947225134333968,-0.05522412123502686,6.067873728153129,0.02827720597259088,-0.0165859914000591,1.8263640772820093,1.8266582707979357
507,18009922,0.1738347521303825,-0.09439773201818243,10.0992543809756,0.0949279861104149,-0.05533569935427235,6.079811046831443,0.02838941085217339,-0.01665139819669585,1.8335504139393641,1.8338457809117026
508,18011122,0.1709614697394639,-0.09444606144057849,10.101543672333502,0.09513313987410227,-0.05544903462800104,6.091932899238243,0.028503570620022314,-0.01671793703824945,1.84086073341845,1.8411572944207724
509,18012176,0.1676034883839725,-0.09389699991930328,10.104937618579726,0.09530979395085898,-0.05554800206591599,6.102583503488226,0.02860402714284652,-0.016776484632426928,1.8472928564311264,1.8475904682117412
510,18013299,0.1639116380362235,-0.09265703197829378,10.109339539771945,0.09549386672037366,-0.05565205591282761,6.11393629179139,0.0287112667551735,-0.016838981891217034,1.8541588068868082,1.8544575404429544
511,18014483,0.1602270921464058,-0.09069370112266499,10.114392120798467,0.095683575597475,-0.05575943725495685,6.1259117320624155,0.02882455610868091,-0.016905001064926903,1.8614118863775702,1.8617118049911945
512,18015680,0.1570121523535596,-0.08809764962876847,10.119496164435121,0.09587151914384222,-0.055864890141562484,6.138024768971245,0.02893931431709609,-0.016971871338426352,1.8687591020260288,1.869060221002791
513,18016861,0.15467786264057118,-0.0850811869395036,10.123911669372635,0.09605419369962073,-0.05596537102333804,6.149981108652773,0.02905275431985534,-0.017037966441604914,1.8760222297153477,1.8763245351538151
514,18018046,0.15345343114302995,-0.0819372960006096,10.12691987780627,0.09623603601552522,-0.056062466719098765,6.1619815087079735,0.029166794022533738,-0.017104400464667047,1.8833241778031666,1.8836276758124952
515,18019263,0.1533935293088468,-0.07898000383611181,10.127975966045557,0.09642271594069408,-0.056158585383767314,6.174307255458651,0.029284140467833564,-0.017172745463079092,1.8908383097330599,1.891143034681368
516,18020462,0.15447409433847262,-0.07648976658878905,10.12679088228803,0.09660793037980592,-0.05625029661390727,6.186449277726514,0.02939997337635895,-0.01724018956871917,1.898255862417054,1.8985617982492984
517,18021642,0.15664597424369356,-0.07469465118741196,10.1233734467233,0.09679277262941348,-0.05633843630230842,6.198394858393648,0.02951418884806166,-0.017306668923555892,1.9055699683499585,1.9058770979288906
518,18022831,0.15978448124483663,-0.07376673397054848,10.11807714054531,0.0969827563776136,-0.056426144948999404,6.210425252113756,0.029629501345394643,-0.01737375960990025,1.9129541639747218,1.9132624985456612
519,18024023,0.16356788926319768,-0.07380560603823264,10.111573407091578,0.09717772930161533,-0.05651412123139698,6.22247824761501,0.029745337198722167,-0.017441124442408078,1.920371358045879,1.920680902885707
520,18025213,0.16740434753030292,-0.07484807953124392,10.104693570981471,0.0973769404751764,-0.05660319044603916,6.234502832964478,0.029861215757887628,-0.017508482239038864,1.9277904164171067,1.9281011718233294
521,18026420,0.17055439785631166,-0.07689175516742563,10.098244064644742,0.09758279963338896,-0.05669599879452625,6.246691413550504,0.029978998197045127,-0.017576914309583858,1.9353301729532622,1.935642158714479
522,18027621,0.17241288370456068,-0.07984356050260816,10.092892239791878,0.09778986750671814,-0.05679189091068988,6.258812977130495,0.030096443827920694,-0.017645121370567597,1.9428470073387958,1.9431602198904196
523,18028813,0.17274219301195068,-0.08342127071032167,10.08910003793838,0.09799577620078839,-0.056891329065376584,6.270839184375717,0.030213254793152036,-0.017712935834813526,1.9503218476465716,1.9506362803630566
524,18029984,0.17172356542925743,-0.08714168664017777,10.087071085908706,0.09819686449590605,-0.05699337198043223,6.282651144617316,0.030328243321476742,-0.017779675073402612,1.9576788321369185,1.9579944660252877
525,18031169,0.16983016607443832,-0.0904365052107178,10.086741249816736,0.09839811324270425,-0.05710053923910693,6.294603932998348,0.030444845085669348,-0.017847339212400955,1.9651379377975216,1.9654547897828503
526,18032357,0.16761286831042843,-0.09281394093986428,10.087837890468261,0.09859723733025705,-0.05721080220094349,6.306588284412225,0.030561978603617694,-0.017915305645415675,1.9726301646794033,1.9729482404046048
527,18033541,0.1655340386763396,-0.0939773565157961,10.089952981900582,0.09879322963204984,-0.057322071391058195,6.318534788742795,0.03067894978750204,-0.01798317497794269,1.9801113098692749,1.98043060772514
528,18034717,0.16391052330335645,-0.09387060123345145,10.092586625050094,0.09898598840745458,-0.057432463218108736,6.330403670613854,0.030795357309869206,-0.018050715554687187,1.9875558645859168,1.987876378755417
529,18035902,0.16290636201855158,-0.09266899486922271,10.095206063499571,0.09917903244644656,-0.05754227597702877,6.342366489799101,0.030912884463318246,-0.018118903151719965,1.9950715688763287,1.9953933111083437
530,18037117,0.16251531191981355,-0.09074738205872088,10.097343119532143,0.09937648855042913,-0.057652534046230115,6.354634761689333,0.03103362689690702,-0.018188950980586135,2.002792450111781,2.0031154540267773
531,18038329,0.16255383616438782,-0.08861953448377222,10.098684950921674,0.09957350379986037,-0.057759940922024446,6.36687436784985,0.03115430998351245,-0.018258956028983628,2.010509101845615,2.0108333668183147
532,18039519,0.16270918461954317,-0.08681970319823894,10.099132683128621,0.09976712772955762,-0.05786325636883035,6.378892335742774,0.03127303286551062,-0.018327813304062537,2.0180999837251488,2.018425489245655
533,18040715,0.16265909178201982,-0.08575778967697982,10.098820415266648,0.09996166800332891,-0.05796582268528402,6.390970524959433,0.031392587020442606,-0.018397140427994136,2.025743584473,2.026070339186002
534,18041899,0.16223519102663594,-0.08563791513839708,10.098063483864365,0.10015375446950445,-0.05806721797680788,6.402926632124328,0.0315111690657345,-0.018465892014078677,2.033324649605435,2.0336526433087903
535,18043119,0.16153650274654485,-0.0864622909061867,10.097219778948455,0.10035082900285523,-0.05817270197171343,6.415245240254645,0.031633597077117985,-0.018536862710484166,2.041151248798546,2.0414805216349845
536,18044319,0.1608875900320528,-0.08806001318803076,10.096528055904274,0.10054389411089369,-0.058278373987539066,6.42736107392173,0.031754249750051054,-0.018606796759269212,2.048864082087252,2.0491946154843537
537,18045511,0.16064314722160072,-0.09013839230318095,10.096053630893834,0.10073538074238184,-0.05838581895116446,6.439395569849756,0.031874326323895974,-0.018676392655459,2.056539841606513,2.0568716295472025
538,18046693,0.16097304772212478,-0.09238581495012,10.095781006116631,0.10092565088478939,-0.0584950189844355,6.451328782998986,0.0319936204432418,-0.018745533767898604,2.0641653122280177,2.0644983465701054
539,18047866,0.16178108397036528,-0.09455434973995,10.095727090870339,0.10111542009628663,-0.05860593123668046,6.463171070876577,0.03211222883101474,-0.01881427852523923,2.071746611894156,2.072080885537974
540,18049080,0.16280075023414114,-0.09644228471667816,10.095951585542561,0.10131306020707087,-0.05872301217032651,6.475427556101425,0.03223522288610613,-0.018885568262014006,2.079607780947263,2.0799433398194997
541,18050285,0.16377747518013935,-0.09783110831044456,10.096489706153339,0.10151041206466294,-0.05884089865584059,6.48759382619734,0.03235754293264405,-0.018956471544894295,2.087425331507831,2.0877621686913117
542,18051491,0.16457747279834303,-0.09849728362709953,10.097306995809532,0.10170889249685774,-0.05895968637989488,6.499771178434287,0.03248020385699526,-0.019027576926668448,2.095264055549023,2.0956021747464453
543,18052679,0.16511834521024688,-0.09831878663673378,10.098297621943463,0.10190505309096752,-0.05907648909841932,6.511767956009155,0.03260126706006733,-0.01909775979571737,2.1030000358807617,2.10333942053051
544,18053879,0.1652183240262427,-0.09736121896230707,10.099283991495428,0.10210331507979901,-0.059193322561174086,6.5238870967989495,0.032723791038163086,-0.019168791782790778,2.1108287003969206,2.11116936589599
545,18055133,0.16457284016346688,-0.09585854668031588,10.100045309075332,0.10230968942136401,-0.0593135291787112,6.53655255361653,0.03285208738869748,-0.01924317094838088,2.1190255372991555,2.1193675441036457
546,18056358,0.16289652809807117,-0.09413180563583382,10.100424210717618,0.10250923766828414,-0.0594288406406151,6.5489255732746585,0.03297766120484113,-0.019315971278165634,2.127047971126417,2.127391290843781
547,18057535,0.16008882487667705,-0.09249827698245723,10.100430308970187,0.10269766221516399,-0.05953771111262345,6.560813779748316,0.03309853635326838,-0.01938604716414519,2.134770048945181,2.135114632474516
548,18058728,0.15632414930980365,-0.09118405620594419,10.100213440779088,0.10288415692529058,-0.05964649369167714,6.5728633343831655,0.03322127715248025,-0.01945720543111936,2.1426114749031,2.1429573417325107
549,18059783,0.1520541739867694,-0.09028014677837826,10.099952328071259,0.10304457407884662,-0.05974173924652833,6.58351878408928,0.033329989178133436,-0.019520232966024446,2.1495570872203142,2.1499040906265434
550,18060994,0.14791822238892322,-0.08975741872459936,10.099816007385398,0.1032237030461596,-0.059850435480603814,6.595749661274224,0.03345499308252234,-0.019592711843391456,2.157544540060117,2.1578928502737926
551,18062217,0.14459938150490453,-0.08948992674626807,10.100001190535997,0.1034005480897401,-0.0599598816610145,6.60810196273025,0.03358145195283609,-0.019666042778662875,2.165626248760536,2.165975880861665
552,18063393,0.14269635532557126,-0.08926474242719426,10.100713634445194,0.10356835900360298,-0.06006485699810888,6.619980401964357,0.03370324834302433,-0.019736679050492652,2.1734113457132462,2.1737622508277847
553,18064552,0.14261762605651931,-0.08881744145672771,10.102066809528232,0.10373365283220248,-0.06016779641275723,6.6316886973966005,0.03382347564665685,-0.019806413526535036,2.181097472913529,2.1814496345025676
554,18065648,0.1444744807680523,-0.08792623057204081,10.103993189580187,0.10389199686312427,-0.06026416356146418,6.64276267393238,0.03393734127521884,-0.0198724630497984,2.188377940804159,2.188731292260141
555,18066822,0.14799500447501907,-0.08653537165018034,10.106241728899697,0.10406574299837794,-0.0603657560877815,6.6546274017221085,0.034059514457498934,-0.019943332447445457,2.1961904733737807,2.1965451013744155
556,18068237,0.15252208243899829,-0.08481725798791367,10.10846401682516,0.10428156174502912,-0.06048577250783439,6.6689308783059165,0.03420707286736815,-0.02002891981554404,2.2056270105665834,2.2059831801725087
557,18069481,0.15715850920469998,-0.08311651498122005,10.110331485600828,0.10447706693047977,-0.06058916945247103,6.681508130674004,0.034337042338629664,-0.020104292742342916,2.213938806681142,2.2142963340058968
558,18070665,0.16103457422739412,-0.08183688305301677,10.111617112063026,0.10466773186636501,-0.0606860643220058,6.693480285334687,0.03446096893315944,-0.02017614504250017,2.221863887338978,2.222222709151732
