time_micros,accel_x,accel_y,accel_z,gyro_x,gyro_y,gyro_z
17408024,0.007779330015182495,-0.06283304840326309,10.116719245910645,0.03573561832308769,-0.04214970022439957,0.013744467869400978
17409223,0.1496025025844574,-0.1023281142115593,10.087995529174805,0.03573561832308769,-0.04214970022439957,0.013744467869400978
17410389,0.15618501603603363,-0.09275355190038681,10.098169326782227,0.03573561832308769,-0.04214970022439957,0.013744467869400978
17411577,0.1400279402732849,-0.07958853244781494,10.124499320983887,0.03573561832308769,-0.04214970022439957,0.013744467869400978
17412747,0.12865814566612244,-0.1316501945257187,10.122105598449707,0.03573561832308769,-0.04214970022439957,0.013744467869400978
17413928,0.16456274688243866,-0.11848518252372742,10.113128662109375,0.03573561832308769,-0.04214970022439957,0.013744467869400978
17415105,0.15438978374004364,-0.10412333905696869,10.059870719909668,0.03573561832308769,-0.04214970022439957,0.013744467869400978
17416296,0.20585304498672485,-0.11250108480453491,10.118515014648438,0.03573561832308769,-0.04214970022439957,0.013744467869400978
17417471,0.18251505494117737,-0.11010744422674179,10.059271812438965,0.03573561832308769,-0.04214970022439957,0.013744467869400978
17418682,0.11369790136814117,-0.07061237841844559,10.12689208984375,0.03573561832308769,-0.04214970022439957,0.013744467869400978
17419844,0.2698829174041748,-0.10412333905696869,10.1879301071167,0.03573561832308769,-0.04214970022439957,0.013744467869400978
17421028,0.13823270797729492,-0.1340438425540924,10.109539031982422,0.03573561832308769,-0.04214970022439957,0.013744467869400978
17422201,0.16875162720680237,-0.053856901824474335,10.070043563842773,0.03573561832308769,-0.04214970022439957,0.013744467869400978
17423390,0.15498818457126617,-0.08497422188520432,10.058673858642578,0.03573561832308769,-0.04214970022439957,0.013744467869400978
17424567,0.16396434605121613,-0.0867694541811943,10.064658164978027,0.03573561832308769,-0.04214970022439957,0.013744467869400978
17425756,0.15917706489562988,-0.12147723138332367,10.099365234375,0.03573561832308769,-0.04214970022439957,0.013744467869400978
17426892,0.19208961725234985,-0.0748012512922287,10.12808895111084,0.03573561832308769,-0.04214970022439957,0.013744467869400978
17428089,0.16994844377040863,-0.09095831960439682,10.138860702514648,0.03573561832308769,-0.04214970022439957,0.013744467869400978
17429277,0.13045337796211243,-0.09694242477416992,10.056879043579102,0.03573561832308769,-0.04214970022439957,0.013744467869400978
17430464,0.20226258039474487,-0.04787280037999153,10.116719245910645,0.03573561832308769,-0.04214970022439957,0.013744467869400978
17431623,0.09514719247817993,-0.12925656139850616,10.123302459716797,0.03573561832308769,-0.04214970022439957,0.013744467869400978
17432806,0.19029438495635986,-0.09754083305597305,10.064059257507324,0.03573561832308769,-0.04214970022439957,0.013744467869400978
17433954,0.15259455144405365,-0.11010744422674179,10.125696182250977,0.03573561832308769,-0.04214970022439957,0.013744467869400978
17435141,0.15438978374004364,-0.05924259126186371,10.120309829711914,0.03573561832308769,-0.04214970022439957,0.013744467869400978
17436338,0.17413730919361115,-0.1262645125389099,10.074831008911133,0.03573561832308769,-0.04214970022439957,0.013744467869400978
17437535,0.1908927857875824,-0.09514719247817993,10.10175895690918,0.03573561832308769,-0.04214970022439957,0.013744467869400978
17438700,0.12327246367931366,-0.07121079415082932,10.095775604248047,0.03573561832308769,-0.04214970022439957,0.013744467869400978
17439904,0.15079931914806366,-0.07001397013664246,10.135270118713379,0.03573561832308769,-0.04214970022439957,0.013744467869400978
17441123,0.14720885455608368,-0.06821873784065247,10.074831008911133,0.03573561832308769,-0.04214970022439957,0.013744467869400978
17442349,0.20046734809875488,-0.10352493077516556,10.065855026245117,0.03573561832308769,-0.04214970022439957,0.013744467869400978
17443515,0.15618501603603363,-0.12746132910251617,10.07183837890625,0.03573561832308769,-0.04214970022439957,0.013744467869400978
17444701,0.15319296717643738,-0.0867694541811943,10.080216407775879,0.03573561832308769,-0.04214970022439957,0.013744467869400978
17445753,0.12746132910251617,-0.11968199908733368,10.116121292114258,0.03573561832308769,-0.04214970022439957,0.013744467869400978
17447028,0.12686292827129364,-0.07360442727804184,10.123900413513184,0.03573561832308769,-0.04214970022439957,0.013744467869400978
17448243,0.14840568602085114,-0.11130426079034805,10.131081581115723,0.03573561832308769,-0.04214970022439957,0.013744467869400978
17449422,0.17294049263000488,-0.09155672788619995,10.111333847045898,0.03573561832308769,-0.04214970022439957,0.014049900695681572
17450629,0.2124355584383011,-0.09933605790138245,10.070043563842773,0.03481931984424591,-0.041233405470848083,0.014049900695681572
17451807,0.10711538791656494,-0.08796627074480057,10.172969818115234,0.03481931984424591,-0.041233405470848083,0.014049900695681572
17453004,0.1298549771308899,-0.09335196018218994,10.123302459716797,0.03481931984424591,-0.041233405470848083,0.014049900695681572
17454173,0.21183714270591736,-0.06522668898105621,10.110735893249512,0.03481931984424591,-0.041233405470848083,0.014049900695681572
17455351,0.14900408685207367,-0.06283304840326309,9.993447303771973,0.03481931984424591,-0.041233405470848083,0.014049900695681572
17456526,0.2710797190666199,-0.07360442727804184,10.118515014648438,0.03481931984424591,-0.041233405470848083,0.014049900695681572
17457718,0.15319296717643738,-0.12387087196111679,10.061665534973145,0.03481931984424591,-0.041233405470848083,0.014049900695681572
17458902,0.19927053153514862,-0.0688171535730362,10.056879043579102,0.03481931984424591,-0.041233405470848083,0.014049900695681572
17460103,0.15438978374004364,-0.08976150304079056,10.119711875915527,0.03481931984424591,-0.041233405470848083,0.014049900695681572
17461312,0.17593254148960114,-0.16037388145923615,10.12928581237793,0.03481931984424591,-0.041233405470848083,0.014049900695681572
17462512,0.1478072702884674,-0.11130426079034805,10.081413269042969,0.03481931984424591,-0.041233405470848083,0.014049900695681572
17463692,0.16456274688243866,-0.11908359080553055,10.091586112976074,0.03481931984424591,-0.041233405470848083,0.014049900695681572
17464883,0.13883112370967865,-0.04488075152039528,10.143049240112305,0.03481931984424591,-0.041233405470848083,0.014049900695681572
17466074,0.14421680569648743,-0.054455310106277466,10.12928581237793,0.03481931984424591,-0.041233405470848083,0.014049900695681572
17467272,0.21004191040992737,-0.07360442727804184,10.114924430847168,0.03481931984424591,-0.041233405470848083,0.014049900695681572
17468330,0.19986894726753235,-0.1023281142115593,10.103554725646973,0.03481931984424591,-0.041233405470848083,0.014049900695681572
17469308,0.19149120151996613,-0.11908359080553055,10.138262748718262,0.03481931984424591,-0.041233405470848083,0.014049900695681572
17470461,0.2148291915655136,-0.09215514361858368,10.097570419311523,0.03481931984424591,-0.041233405470848083,0.014049900695681572
17471670,0.16875162720680237,-0.1083122119307518,10.087995529174805,0.03481931984424591,-0.041233405470848083,0.014049900695681572
17472855,0.15678341686725616,-0.11549313366413116,10.119711875915527,0.03481931984424591,-0.041233405470848083,0.014049900695681572
17474080,0.1478072702884674,-0.04428233951330185,10.131081581115723,0.03481931984424591,-0.041233405470848083,0.014049900695681572
17475275,0.19029438495635986,-0.08317898958921432,10.1879301071167,0.03481931984424591,-0.041233405470848083,0.014049900695681572
17476483,0.1813182383775711,-0.1376343071460724,10.12689208984375,0.03481931984424591,-0.041233405470848083,0.014049900695681572
17477665,0.14062635600566864,-0.11250108480453491,10.07423210144043,0.03481931984424591,-0.041233405470848083,0.014049900695681572
17478834,0.18191663920879364,-0.13883112370967865,10.115522384643555,0.03481931984424591,-0.041233405470848083,0.014049900695681572
17480018,0.18191663920879364,-0.10891062021255493,10.131081581115723,0.03481931984424591,-0.041233405470848083,0.014049900695681572
17481227,0.23876559734344482,-0.12566609680652618,10.094578742980957,0.03481931984424591,-0.041233405470848083,0.014049900695681572
17482421,0.03590460121631622,-0.07240761071443558,10.162796974182129,0.03481931984424591,-0.041233405470848083,0.014049900695681572
17483614,0.18849915266036987,-0.09993447363376617,10.098767280578613,0.03481931984424591,-0.041233405470848083,0.014049900695681572
17484790,0.1849086880683899,-0.08437581360340118,10.093381881713867,0.03481931984424591,-0.041233405470848083,0.014049900695681572
17486008,0.16695639491081238,-0.0748012512922287,10.094578742980957,0.03481931984424591,-0.041233405470848083,0.014049900695681572
17487239,0.1950816661119461,-0.05026644095778465,10.082610130310059,0.03481931984424591,-0.041233405470848083,0.014049900695681572
17488393,0.1693500280380249,-0.1400279402732849,10.0778226852417,0.03481931984424591,-0.041233405470848083,0.014049900695681572
17489702,0.1358390748500824,-0.07719489187002182,10.113128662109375,0.03481931984424591,-0.041233405470848083,0.014049900695681572
17490913,0.16097229719161987,-0.08736786246299744,10.044910430908203,0.03481931984424591,-0.041233405470848083,0.014049900695681572
17492097,0.1890975683927536,-0.13284702599048615,10.125696182250977,0.03481931984424591,-0.041233405470848083,0.014049900695681572
17493281,0.13105179369449615,-0.053856901824474335,10.147836685180664,0.03481931984424591,-0.041233405470848083,0.014049900695681572
17494457,0.14661045372486115,-0.0885646790266037,10.106546401977539,0.03481931984424591,-0.041233405470848083,0.014049900695681572
17495648,0.19627848267555237,-0.09993447363376617,10.136466979980469,0.03481931984424591,-0.041233405470848083,0.014049900695681572
17496813,0.02872367948293686,-0.05924259126186371,10.074831008911133,0.03481931984424591,-0.041233405470848083,0.014049900695681572
17497990,0.16635797917842865,-0.09395036846399307,10.099365234375,0.03481931984424591,-0.041233405470848083,0.014049900695681572
17499166,0.11788677424192429,-0.11190266907215118,10.113128662109375,0.03481931984424591,-0.041233405470848083,0.014049900695681572
17500370,0.18431028723716736,-0.09574560075998306,10.061067581176758,0.03481931984424591,-0.041233405470848083,0.014049900695681572
17501547,0.1436184048652649,-0.0945487841963768,10.136466979980469,0.03481931984424591,-0.041233405470848083,0.014049900695681572
17502727,0.21363237500190735,-0.09873764961957932,10.070642471313477,0.03481931984424591,-0.041233405470848083,0.014049900695681572
17503903,0.17772777378559113,-0.11788677424192429,10.055083274841309,0.03481931984424591,-0.041233405470848083,0.014049900695681572
17505103,0.18191663920879364,-0.07061237841844559,10.142451286315918,0.03481931984424591,-0.041233405470848083,0.014049900695681572
17506287,0.13942952454090118,-0.10172969847917557,10.062862396240234,0.03481931984424591,-0.041233405470848083,0.014049900695681572
17507480,0.18550710380077362,-0.10891062021255493,10.086200714111328,0.03481931984424591,-0.041233405470848083,0.014049900695681572
17508670,0.14421680569648743,-0.038298241794109344,10.149632453918457,0.03481931984424591,-0.041233405470848083,0.014049900695681572
17509862,0.11968199908733368,-0.10532016307115555,10.078421592712402,0.03481931984424591,-0.041233405470848083,0.014049900695681572
17511052,0.16456274688243866,-0.0610378198325634,10.151427268981934,0.03481931984424591,-0.041233405470848083,0.014049900695681572
17512247,0.2597099542617798,-0.0610378198325634,10.155017852783203,0.03481931984424591,-0.041233405470848083,0.014049900695681572
17513431,0.18969596922397614,-0.09215514361858368,10.087397575378418,0.03481931984424591,-0.041233405470848083,0.014049900695681572
17514627,0.08736786246299744,-0.07360442727804184,10.052091598510742,0.03481931984424591,-0.041233405470848083,0.014049900695681572
17515812,0.14421680569648743,-0.0963440090417862,10.044910430908203,0.03481931984424591,-0.041233405470848083,0.014049900695681572
17516999,0.2028609961271286,-0.12686292827129364,10.128687858581543,0.03481931984424591,-0.041233405470848083,0.014049900695681572
17518174,0.18251505494117737,-0.06462828069925308,10.087397575378418,0.03481931984424591,-0.041233405470848083,0.014049900695681572
17519367,0.14840568602085114,-0.04308551922440529,10.153820991516113,0.03481931984424591,-0.041233405470848083,0.014049900695681572
17520578,0.11908359080553055,-0.1083122119307518,10.095775604248047,0.03481931984424591,-0.041233405470848083,0.014049900695681572
17521778,0.1753341257572174,-0.08018694072961807,10.041918754577637,0.03481931984424591,-0.041233405470848083,0.014049900695681572
17522935,0.2064514458179474,-0.10651697963476181,10.166986465454102,0.03481931984424591,-0.041233405470848083,0.014049900695681572
17524136,0.11728835850954056,-0.09993447363376617,10.102357864379883,0.03481931984424591,-0.041233405470848083,0.014049900695681572
17525328,0.1280597448348999,-0.10352493077516556,10.0778226852417,0.03481931984424591,-0.041233405470848083,0.014049900695681572
17526525,0.14720885455608368,-0.10891062021255493,10.102357864379883,0.03481931984424591,-0.041233405470848083,0.014049900695681572
17527707,0.16815321147441864,0.022141169756650925,10.180749893188477,0.035124752670526505,-0.04184426739811897,0.014660765416920185
17528906,0.12387087196111679,-0.0945487841963768,10.116121292114258,0.035124752670526505,-0.04184426739811897,0.014660765416920185
17530104,0.20166417956352234,-0.11070585250854492,10.111932754516602,0.035124752670526505,-0.04184426739811897,0.014660765416920185
17531291,0.14481522142887115,-0.14601203799247742,10.043115615844727,0.035124752670526505,-0.04184426739811897,0.014660765416920185
17532480,0.10891062021255493,-0.13284702599048615,10.141852378845215,0.035124752670526505,-0.04184426739811897,0.014660765416920185
17533672,0.1615706980228424,-0.09095831960439682,10.025761604309082,0.035124752670526505,-0.04184426739811897,0.014660765416920185
17534876,0.13105179369449615,-0.08796627074480057,10.081413269042969,0.035124752670526505,-0.04184426739811897,0.014660765416920185
17536078,0.19448325037956238,-0.08138375729322433,10.16040325164795,0.035124752670526505,-0.04184426739811897,0.014660765416920185
17537261,0.1436184048652649,-0.12087882310152054,10.150230407714844,0.035124752670526505,-0.04184426739811897,0.014660765416920185
17538454,0.1693500280380249,-0.0748012512922287,10.061665534973145,0.035124752670526505,-0.04184426739811897,0.014660765416920185
17539648,0.1693500280380249,-0.12506769597530365,10.096972465515137,0.035124752670526505,-0.04184426739811897,0.014660765416920185
17540834,0.11788677424192429,-0.1005328819155693,10.064059257507324,0.035124752670526505,-0.04184426739811897,0.014660765416920185
17542036,0.20405781269073486,-0.0017952299676835537,10.116121292114258,0.035124752670526505,-0.04184426739811897,0.014660765416920185
17543284,0.15079931914806366,-0.09155672788619995,10.062264442443848,0.035124752670526505,-0.04184426739811897,0.014660765416920185
17544542,0.11968199908733368,-0.11908359080553055,10.098169326782227,0.035124752670526505,-0.04184426739811897,0.014660765416920185
17545716,0.1280597448348999,-0.010172969661653042,10.129884719848633,0.035124752670526505,-0.04184426739811897,0.014660765416920185
17546897,0.13643747568130493,-0.09574560075998306,10.133475303649902,0.035124752670526505,-0.04184426739811897,0.014660765416920185
17547971,0.15498818457126617,-0.0807853490114212,10.15561580657959,0.035124752670526505,-0.04184426739811897,0.014660765416920185
17549273,0.10412333905696869,-0.08317898958921432,10.103554725646973,0.035124752670526505,-0.04184426739811897,0.014660765416920185
17550506,0.2166244238615036,-0.08018694072961807,10.079618453979492,0.035124752670526505,-0.04184426739811897,0.014660765416920185
17551680,0.14720885455608368,-0.06283304840326309,10.081413269042969,0.035124752670526505,-0.04184426739811897,0.014660765416920185
17552901,0.15917706489562988,-0.10352493077516556,10.23819637298584,0.035124752670526505,-0.04184426739811897,0.014660765416920185
17554101,0.12446928024291992,-0.07300601899623871,10.141852378845215,0.035124752670526505,-0.04184426739811897,0.014660765416920185
17555301,0.19388484954833984,-0.0867694541811943,10.111932754516602,0.035124752670526505,-0.04184426739811897,0.014660765416920185
17556479,0.1573818325996399,-0.14421680569648743,10.110136985778809,0.035124752670526505,-0.04184426739811897,0.014660765416920185
17557675,0.1537913680076599,-0.08018694072961807,10.013195037841797,0.035124752670526505,-0.04184426739811897,0.014660765416920185
17558854,0.1142963096499443,-0.0825805813074112,10.162796974182129,0.035124752670526505,-0.04184426739811897,0.014660765416920185
17560070,0.16456274688243866,-0.09335196018218994,10.064658164978027,0.035124752670526505,-0.04184426739811897,0.014660765416920185
17561252,0.15678341686725616,0.0,10.05029582977295,0.035124752670526505,-0.04184426739811897,0.014660765416920185
17562461,0.20166417956352234,-0.0867694541811943,10.156214714050293,0.035124752670526505,-0.04184426739811897,0.014660765416920185
17563643,0.19927053153514862,-0.0305189099162817,10.01798152923584,0.035124752670526505,-0.04184426739811897,0.014660765416920185
17564836,0.13942952454090118,-0.12925656139850616,10.04670524597168,0.035124752670526505,-0.04184426739811897,0.014660765416920185
17566044,0.17054684460163116,-0.12865814566612244,10.23939323425293,0.035124752670526505,-0.04184426739811897,0.014660765416920185
17567263,0.20764827728271484,-0.07061237841844559,10.02037525177002,0.035124752670526505,-0.04184426739811897,0.014660765416920185
17568450,0.18371187150478363,-0.0963440090417862,10.07662582397461,0.035124752670526505,-0.04184426739811897,0.014660765416920185
17569646,0.1711452603340149,-0.08557263016700745,10.039525032043457,0.035124752670526505,-0.04184426739811897,0.014660765416920185
17570699,0.1675547957420349,-0.11070585250854492,10.103554725646973,0.035124752670526505,-0.04184426739811897,0.014660765416920185
17571673,0.14601203799247742,-0.04488075152039528,10.174166679382324,0.035124752670526505,-0.04184426739811897,0.014660765416920185
17572890,0.17054684460163116,-0.06642351299524307,10.102357864379883,0.035124752670526505,-0.04184426739811897,0.014660765416920185
17574084,0.15798024833202362,-0.04188869893550873,10.10534954071045,0.035124752670526505,-0.04184426739811897,0.014660765416920185
17575278,0.11788677424192429,-0.13703589141368866,10.174166679382324,0.035124752670526505,-0.04184426739811897,0.014660765416920185
17576440,0.16216911375522614,-0.1023281142115593,10.018580436706543,0.035124752670526505,-0.04184426739811897,0.014660765416920185
17577621,0.2303878515958786,-0.10891062021255493,10.062264442443848,0.035124752670526505,-0.04184426739811897,0.014660765416920185
17578802,0.16396434605121613,-0.07420284301042557,10.15681266784668,0.035124752670526505,-0.04184426739811897,0.014660765416920185
17579990,0.11010744422674179,-0.09574560075998306,10.12808895111084,0.035124752670526505,-0.04184426739811897,0.014660765416920185
17581217,0.23697036504745483,-0.09873764961957932,10.07183837890625,0.035124752670526505,-0.04184426739811897,0.014660765416920185
17582420,0.19149120151996613,-0.1789245903491974,10.064658164978027,0.035124752670526505,-0.04184426739811897,0.014660765416920185
17583605,0.19388484954833984,-0.09694242477416992,10.091586112976074,0.035124752670526505,-0.04184426739811897,0.014660765416920185
17584818,0.21123872697353363,-0.13224861025810242,10.196308135986328,0.035124752670526505,-0.04184426739811897,0.014660765416920185
17586027,0.13344542682170868,-0.13823270797729492,10.042516708374023,0.035124752670526505,-0.04184426739811897,0.014660765416920185
17587252,0.1735389083623886,0.019747531041502953,9.987462997436523,0.035124752670526505,-0.04184426739811897,0.014660765416920185
17588437,0.23517513275146484,-0.16815321147441864,10.249567031860352,0.035124752670526505,-0.04184426739811897,0.014660765416920185
17589661,0.13703589141368866,-0.038896650075912476,10.15920639038086,0.035124752670526505,-0.04184426739811897,0.014660765416920185
17590842,0.18071982264518738,-0.1142963096499443,9.999431610107422,0.035124752670526505,-0.04184426739811897,0.014660765416920185
17592066,0.17054684460163116,-0.20166417956352234,10.241189002990723,0.035124752670526505,-0.04184426739811897,0.014660765416920185
17593250,0.10771380364894867,-0.07300601899623871,10.108940124511719,0.035124752670526505,-0.04184426739811897,0.014660765416920185
17594452,0.1831134557723999,-0.07779330015182495,10.060468673706055,0.035124752670526505,-0.04184426739811897,0.014660765416920185
17595635,0.15917706489562988,-0.0963440090417862,10.026958465576172,0.035124752670526505,-0.04184426739811897,0.014660765416920185
17596833,0.20345939695835114,0.09155672788619995,10.07542896270752,0.035124752670526505,-0.04184426739811897,0.014660765416920185
17598015,0.12387087196111679,-0.09514719247817993,10.147836685180664,0.035124752670526505,-0.04184426739811897,0.014660765416920185
17599230,0.1496025025844574,-0.1537913680076599,10.027556419372559,0.035124752670526505,-0.04184426739811897,0.014660765416920185
17600521,0.13224861025810242,-0.05146326124668121,10.056280136108398,0.035124752670526505,-0.04184426739811897,0.014660765416920185
17601732,0.1693500280380249,-0.09395036846399307,10.12808895111084,0.035124752670526505,-0.04184426739811897,0.014660765416920185
17602938,0.19208961725234985,-0.12446928024291992,10.13048267364502,0.035124752670526505,-0.04184426739811897,0.014660765416920185
17604152,0.1753341257572174,-0.11369790136814117,10.065855026245117,0.035124752670526505,-0.04184426739811897,0.014660765416920185
17605359,0.14481522142887115,-0.052660081535577774,10.082610130310059,0.0354301854968071,-0.04184426739811897,0.014660765416920185
17606544,0.18610551953315735,-0.17294049263000488,10.257944107055664,0.0354301854968071,-0.04184426739811897,0.014660765416920185
17607598,0.15438978374004364,0.027526861056685448,10.060468673706055,0.0354301854968071,-0.04184426739811897,0.014660765416920185
17608790,0.22679738700389862,-0.1400279402732849,10.035934448242188,0.0354301854968071,-0.04184426739811897,0.014660765416920185
17609959,0.14601203799247742,-0.19627848267555237,10.129884719848633,0.0354301854968071,-0.04184426739811897,0.014660765416920185
17611163,0.10711538791656494,-0.03231414034962654,10.062862396240234,0.0354301854968071,-0.04184426739811897,0.014660765416920185
17612380,0.11070585250854492,-0.14062635600566864,10.177159309387207,0.0354301854968071,-0.04184426739811897,0.014660765416920185
17613543,0.15977546572685242,-0.06762032955884933,10.030548095703125,0.0354301854968071,-0.04184426739811897,0.014660765416920185
17614728,0.1537913680076599,0.004787280224263668,10.05029582977295,0.0354301854968071,-0.04184426739811897,0.014660765416920185
17615925,0.12566609680652618,-0.19807371497154236,10.241189002990723,0.0354301854968071,-0.04184426739811897,0.014660765416920185
17617130,0.09574560075998306,-0.02932208962738514,10.079019546508789,0.0354301854968071,-0.04184426739811897,0.014660765416920185
17618326,0.17234207689762115,-0.10352493077516556,10.041319847106934,0.0354301854968071,-0.04184426739811897,0.014660765416920185
17619517,0.17234207689762115,-0.08198217302560806,10.116719245910645,0.0354301854968071,-0.04184426739811897,0.014660765416920185
17620707,0.11250108480453491,-0.08317898958921432,10.026958465576172,0.0354301854968071,-0.04184426739811897,0.014660765416920185
17621889,0.1789245903491974,-0.12087882310152054,10.260936737060547,0.0354301854968071,-0.04184426739811897,0.014660765416920185
17623094,0.12387087196111679,-0.06402987241744995,10.002423286437988,0.0354301854968071,-0.04184426739811897,0.014660765416920185
17624287,0.27646541595458984,-0.13464225828647614,10.134073257446289,0.0354301854968071,-0.04184426739811897,0.014660765416920185
17625481,0.10950902849435806,-0.07839170843362808,10.156214714050293,0.0354301854968071,-0.04184426739811897,0.014660765416920185
17626662,0.10651697963476181,-0.026330040767788887,10.057476997375488,0.0354301854968071,-0.04184426739811897,0.014660765416920185
17627867,0.15977546572685242,-0.1573818325996399,10.208874702453613,0.0354301854968071,-0.04184426739811897,0.014660765416920185
17629067,0.13045337796211243,-0.025133220478892326,10.026359558105469,0.0354301854968071,-0.04184426739811897,0.014660765416920185
17630270,0.13105179369449615,-0.04966802895069122,10.149632453918457,0.0354301854968071,-0.04184426739811897,0.014660765416920185
17631464,0.21123872697353363,-0.1083122119307518,10.140655517578125,0.0354301854968071,-0.04184426739811897,0.014660765416920185
17632661,0.16635797917842865,-0.04308551922440529,10.019777297973633,0.0354301854968071,-0.04184426739811897,0.014660765416920185
17633849,0.13344542682170868,-0.07839170843362808,10.07423210144043,0.0354301854968071,-0.04184426739811897,0.014660765416920185
17635030,0.1711452603340149,-0.07300601899623871,10.191520690917969,0.0354301854968071,-0.04184426739811897,0.014660765416920185
17636236,0.14062635600566864,-0.27467018365859985,10.013792991638184,0.0354301854968071,-0.04184426739811897,0.014660765416920185
17637433,0.1753341257572174,0.039495062083005905,10.018580436706543,0.0354301854968071,-0.04184426739811897,0.014660765416920185
17638625,0.15798024833202362,-0.1831134557723999,10.223834991455078,0.0354301854968071,-0.04184426739811897,0.014660765416920185
17639812,0.1358390748500824,-0.15917706489562988,10.105948448181152,0.0354301854968071,-0.04184426739811897,0.014660765416920185
17640998,0.19807371497154236,-0.07300601899623871,10.058673858642578,0.0354301854968071,-0.04184426739811897,0.014660765416920185
17642201,0.10950902849435806,-0.11668995022773743,10.20947265625,0.0354301854968071,-0.04184426739811897,0.014660765416920185
17643388,0.1693500280380249,-0.10472175478935242,10.057476997375488,0.0354301854968071,-0.04184426739811897,0.014660765416920185
17644594,0.1083122119307518,0.06522668898105621,10.013195037841797,0.0354301854968071,-0.04184426739811897,0.014660765416920185
17645832,0.07899012416601181,-0.17054684460163116,10.062862396240234,0.0354301854968071,-0.04184426739811897,0.014660765416920185
17647070,0.17174367606639862,-0.04488075152039528,10.141254425048828,0.0354301854968071,-0.04184426739811897,0.014660765416920185
17648278,0.13045337796211243,-0.17054684460163116,10.052091598510742,0.0354301854968071,-0.04184426739811897,0.014660765416920185
17649500,0.31835412979125977,-0.001196820056065917,10.169978141784668,0.0354301854968071,-0.04184426739811897,0.014660765416920185
17650548,0.040093470364809036,-0.16994844377040863,9.998234748840332,0.0354301854968071,-0.04184426739811897,0.014660765416920185
17651829,0.29441770911216736,-0.03410936892032623,10.118515014648438,0.0354301854968071,-0.04184426739811897,0.014660765416920185
17653023,0.09873764961957932,-0.20226258039474487,10.054485321044922,0.0354301854968071,-0.04184426739811897,0.014660765416920185
17654214,0.27227655053138733,-0.12566609680652618,10.23699951171875,0.0354301854968071,-0.04184426739811897,0.014660765416920185
17655409,0.013763430528342724,-0.11489471793174744,10.029352188110352,0.0354301854968071,-0.04184426739811897,0.014660765416920185
17656592,0.29082727432250977,0.0017952299676835537,9.985668182373047,0.0354301854968071,-0.04184426739811897,0.014660765416920185
17657796,0.12087882310152054,-0.20226258039474487,10.152026176452637,0.0354301854968071,-0.04184426739811897,0.014660765416920185
17658978,0.18371187150478363,-0.024534810334444046,10.166986465454102,0.0354301854968071,-0.04184426739811897,0.014660765416920185
17660178,0.10532016307115555,-0.01615707017481327,9.99165153503418,0.0354301854968071,-0.04184426739811897,0.014660765416920185
17661356,0.2776622474193573,-0.16994844377040863,10.182544708251953,0.0354301854968071,-0.04184426739811897,0.014660765416920185
17662510,0.1651611626148224,-0.1005328819155693,10.253755569458008,0.0354301854968071,-0.04184426739811897,0.014660765416920185
17663681,0.12566609680652618,-0.028125271201133728,9.945574760437012,0.0354301854968071,-0.04184426739811897,0.014660765416920185
17664872,0.27287495136260986,-0.23098626732826233,10.369847297668457,0.0354301854968071,-0.04184426739811897,0.014660765416920185
17666062,-0.021542759612202644,-0.14661045372486115,9.952157020568848,0.0354301854968071,-0.04184426739811897,0.014660765416920185
17667275,0.29980340600013733,0.1280597448348999,10.071240425109863,0.0354301854968071,-0.04184426739811897,0.014660765416920185
17668464,0.022739579901099205,-0.3111732006072998,10.262133598327637,0.0354301854968071,-0.04184426739811897,0.014660765416920185
17669658,0.1735389083623886,0.13344542682170868,9.99045467376709,0.0354301854968071,-0.04184426739811897,0.014660765416920185
17670802,0.08736786246299744,-0.18969596922397614,10.162199020385742,0.0354301854968071,-0.04184426739811897,0.014660765416920185
17671989,0.22141170501708984,-0.1968768984079361,10.274700164794922,0.0354301854968071,-0.04184426739811897,0.014660765416920185
17673018,0.14481522142887115,0.010172969661653042,9.876158714294434,0.0354301854968071,-0.04184426739811897,0.014660765416920185
17673972,0.3147636651992798,-0.20764827728271484,10.306415557861328,0.0354301854968071,-0.04184426739811897,0.014660765416920185
17675236,0.023337990045547485,-0.05984099954366684,10.031744956970215,0.0354301854968071,-0.04184426739811897,0.014660765416920185
17676439,0.2261989861726761,-0.03470778092741966,10.190323829650879,0.0354301854968071,-0.04184426739811897,0.014660765416920185
17677625,0.11788677424192429,-0.20345939695835114,10.114924430847168,0.0354301854968071,-0.04184426739811897,0.014660765416920185
17678812,0.19807371497154236,0.03291254863142967,9.972502708435059,0.0354301854968071,-0.04184426739811897,0.014660765416920185
17679997,0.17952300608158112,0.019149120897054672,10.10056209564209,0.0354301854968071,-0.04184426739811897,0.014660765416920185
17681202,0.14301998913288116,-0.22739580273628235,10.252558708190918,0.0354301854968071,-0.04184426739811897,0.014660765416920185
17682386,0.14661045372486115,0.11130426079034805,9.903087615966797,0.0354301854968071,-0.042760565876960754,0.014660765416920185
17683574,0.1280597448348999,-0.1711452603340149,10.275298118591309,0.0354301854968071,-0.042760565876960754,0.014660765416920185
17684753,0.19986894726753235,-0.037101421505212784,10.014391899108887,0.0354301854968071,-0.042760565876960754,0.014660765416920185
17685941,0.20345939695835114,0.028125271201133728,10.038926124572754,0.0354301854968071,-0.042760565876960754,0.014660765416920185
17687135,0.14720885455608368,-0.2303878515958786,10.245377540588379,0.0354301854968071,-0.042760565876960754,0.014660765416920185
17688334,0.1220756396651268,0.04966802895069122,9.955747604370117,0.0354301854968071,-0.042760565876960754,0.014660765416920185
17689522,0.2674892842769623,-0.08916308730840683,10.250762939453125,0.0354301854968071,-0.042760565876960754,0.014660765416920185
17690682,0.15798024833202362,-0.16875162720680237,10.051492691040039,0.0354301854968071,-0.042760565876960754,0.014660765416920185
17691865,0.24774174392223358,0.020345939323306084,9.970108985900879,0.0354301854968071,-0.042760565876960754,0.014660765416920185
17693063,0.11309949308633804,-0.2285926192998886,10.234606742858887,0.0354301854968071,-0.042760565876960754,0.014660765416920185
17694250,0.15917706489562988,-0.06762032955884933,10.124499320983887,0.0354301854968071,-0.042760565876960754,0.014660765416920185
17695446,0.12865814566612244,-0.09933605790138245,10.111932754516602,0.0354301854968071,-0.042760565876960754,0.014660765416920185
17696609,0.2483401596546173,-0.07300601899623871,10.200496673583984,0.0354301854968071,-0.042760565876960754,0.014660765416920185
17697763,0.06462828069925308,-0.15079931914806366,10.18553638458252,0.0354301854968071,-0.042760565876960754,0.014660765416920185
17698937,0.19747529923915863,-0.055652130395174026,10.112530708312988,0.0354301854968071,-0.042760565876960754,0.014660765416920185
17700117,0.17653095722198486,-0.1950816661119461,10.259140968322754,0.0354301854968071,-0.042760565876960754,0.014660765416920185
17701294,0.15798024833202362,-0.038896650075912476,9.974297523498535,0.0354301854968071,-0.042760565876960754,0.014660765416920185
17702468,0.2740717828273773,-0.06522668898105621,10.081413269042969,0.0354301854968071,-0.042760565876960754,0.014660765416920185
17703660,0.11668995022773743,-0.14900408685207367,10.098767280578613,0.0354301854968071,-0.042760565876960754,0.014660765416920185
17704819,0.18012140691280365,-0.037699829787015915,10.091586112976074,0.0354301854968071,-0.042760565876960754,0.014660765416920185
17706026,0.19986894726753235,-0.13524065911769867,10.092185020446777,0.0354301854968071,-0.042760565876960754,0.014660765416920185
17707204,0.1400279402732849,-0.07958853244781494,9.949164390563965,0.0354301854968071,-0.042760565876960754,0.014660765416920185
17708369,0.1400279402732849,-0.0688171535730362,10.123900413513184,0.0354301854968071,-0.042760565876960754,0.014660765416920185
17709517,0.12028041481971741,-0.12686292827129364,10.108940124511719,0.0354301854968071,-0.042760565876960754,0.014660765416920185
17710712,0.15798024833202362,-0.06582509726285934,9.927621841430664,0.0354301854968071,-0.042760565876960754,0.014660765416920185
17711873,0.1573818325996399,-0.13643747568130493,10.202292442321777,0.0354301854968071,-0.042760565876960754,0.014660765416920185
17713068,0.1280597448348999,-0.07958853244781494,10.064658164978027,0.0354301854968071,-0.042760565876960754,0.014660765416920185
17714250,0.22141170501708984,-0.07001397013664246,10.085003852844238,0.0354301854968071,-0.042760565876960754,0.014660765416920185
17715456,0.13284702599048615,-0.13045337796211243,10.019777297973633,0.0354301854968071,-0.042760565876960754,0.014660765416920185
17716622,0.14242158830165863,-0.1340438425540924,10.149632453918457,0.0354301854968071,-0.042760565876960754,0.014660765416920185
17717825,0.18790073692798615,0.02992049977183342,10.041918754577637,0.0354301854968071,-0.042760565876960754,0.014660765416920185
17718990,0.1849086880683899,-0.15917706489562988,10.152624130249023,0.0354301854968071,-0.042760565876960754,0.014660765416920185
17720162,0.18431028723716736,-0.07779330015182495,10.082012176513672,0.0354301854968071,-0.042760565876960754,0.014660765416920185
17721344,0.14601203799247742,-0.13643747568130493,10.102357864379883,0.0354301854968071,-0.042760565876960754,0.014660765416920185
17722533,0.21004191040992737,-0.18670392036437988,10.35189437866211,0.0354301854968071,-0.042760565876960754,0.014660765416920185
17723704,0.14840568602085114,-0.018550710752606392,9.947967529296875,0.0354301854968071,-0.042760565876960754,0.014660765416920185
17724873,0.21363237500190735,-0.06343146413564682,10.13048267364502,0.0354301854968071,-0.042760565876960754,0.014660765416920185
17726053,0.09993447363376617,-0.15020091831684113,10.192119598388672,0.0354301854968071,-0.042760565876960754,0.014660765416920185
17727253,0.13524065911769867,-0.054455310106277466,9.99284839630127,0.0354301854968071,-0.042760565876960754,0.014660765416920185
17728416,0.1633659303188324,-0.15319296717643738,10.007808685302734,0.0354301854968071,-0.042760565876960754,0.014660765416920185
17729600,0.1262645125389099,-0.1615706980228424,10.220843315124512,0.0354301854968071,-0.042760565876960754,0.014660765416920185
17730774,0.1142963096499443,0.0472743920981884,9.99284839630127,0.0354301854968071,-0.042760565876960754,0.014660765416920185
17731962,0.1633659303188324,-0.06163623183965683,10.059271812438965,0.0354301854968071,-0.042760565876960754,0.014660765416920185
17733140,0.11788677424192429,-0.19986894726753235,10.121506690979004,0.0354301854968071,-0.042760565876960754,0.014660765416920185
17734311,0.11369790136814117,0.019747531041502953,9.974896430969238,0.0354301854968071,-0.042760565876960754,0.014660765416920185
17735472,0.22560057044029236,-0.13045337796211243,10.195111274719238,0.0354301854968071,-0.042760565876960754,0.014660765416920185
17736655,0.17952300608158112,-0.14720885455608368,10.012596130371094,0.0354301854968071,-0.042760565876960754,0.014660765416920185
17737842,0.1950816661119461,-0.05864417925477028,10.037131309509277,0.0354301854968071,-0.042760565876960754,0.014660765416920185
17739032,0.14541363716125488,-0.2543242573738098,10.15561580657959,0.0354301854968071,-0.042760565876960754,0.014660765416920185
17740217,0.2621035873889923,-0.0945487841963768,10.0227689743042,0.0354301854968071,-0.042760565876960754,0.014660765416920185
17741384,0.11848518252372742,-0.15618501603603363,10.067051887512207,0.0354301854968071,-0.042760565876960754,0.014660765416920185
17742571,0.13942952454090118,-0.1160915419459343,10.147836685180664,0.0354301854968071,-0.042760565876960754,0.014660765416920185
17743769,0.14541363716125488,-0.0885646790266037,10.043713569641113,0.0354301854968071,-0.042760565876960754,0.014660765416920185
17744937,0.25671789050102234,-0.04847121238708496,10.108940124511719,0.0354301854968071,-0.042760565876960754,0.014660765416920185
17746098,0.17772777378559113,-0.1735389083623886,10.148435592651367,0.0354301854968071,-0.042760565876960754,0.014660765416920185
17747277,0.022739579901099205,-0.038298241794109344,10.072437286376953,0.0354301854968071,-0.042760565876960754,0.014660765416920185
17748553,0.17174367606639862,-0.07539965957403183,10.047304153442383,0.0354301854968071,-0.042760565876960754,0.014660765416920185
17749735,0.1496025025844574,-0.16276751458644867,10.104751586914062,0.0354301854968071,-0.042760565876960754,0.014660765416920185
17750916,0.1220756396651268,-0.024534810334444046,10.069445610046387,0.0354301854968071,-0.042760565876960754,0.014660765416920185
17751979,0.12267404794692993,-0.12267404794692993,10.059271812438965,0.0354301854968071,-0.042760565876960754,0.014660765416920185
17752949,0.15199613571166992,-0.08437581360340118,10.15920639038086,0.0354301854968071,-0.042760565876960754,0.014660765416920185
17754095,0.13524065911769867,-0.018550710752606392,10.121506690979004,0.0354301854968071,-0.042760565876960754,0.014660765416920185
17755311,0.13524065911769867,-0.0825805813074112,10.106546401977539,0.0354301854968071,-0.042760565876960754,0.014660765416920185
17756496,0.18371187150478363,-0.09574560075998306,10.043115615844727,0.0354301854968071,-0.042760565876960754,0.014660765416920185
17757674,0.21542760729789734,-0.08138375729322433,10.072437286376953,0.0354301854968071,-0.042760565876960754,0.014660765416920185
17758880,0.1573818325996399,-0.11190266907215118,10.117916107177734,0.0354301854968071,-0.042760565876960754,0.014660765416920185
17760053,0.1908927857875824,-0.1513977348804474,10.023367881774902,0.0354301854968071,-0.04214970022439957,0.014966198243200779
17761234,0.15079931914806366,-0.10532016307115555,10.155017852783203,0.0354301854968071,-0.04214970022439957,0.014966198243200779
17762401,0.14900408685207367,-0.09395036846399307,10.166387557983398,0.0354301854968071,-0.04214970022439957,0.014966198243200779
17763605,0.1316501945257187,-0.09275355190038681,10.124499320983887,0.0354301854968071,-0.04214970022439957,0.014966198243200779
17764803,0.17234207689762115,-0.07599806785583496,10.000628471374512,0.0354301854968071,-0.04214970022439957,0.014966198243200779
17766011,0.16097229719161987,-0.1376343071460724,10.1544189453125,0.0354301854968071,-0.04214970022439957,0.014966198243200779
17767260,0.12686292827129364,-0.0945487841963768,10.070642471313477,0.0354301854968071,-0.04214970022439957,0.014966198243200779
17768439,0.22919103503227234,-0.13045337796211243,10.122105598449707,0.0354301854968071,-0.04214970022439957,0.014966198243200779
17769634,0.1142963096499443,-0.09873764961957932,10.117916107177734,0.0354301854968071,-0.04214970022439957,0.014966198243200779
17770850,0.18251505494117737,-0.11728835850954056,10.145442962646484,0.0354301854968071,-0.04214970022439957,0.014966198243200779
17772038,0.15857864916324615,-0.15079931914806366,10.056280136108398,0.0354301854968071,-0.04214970022439957,0.014966198243200779
17773254,0.17234207689762115,-0.08796627074480057,10.094578742980957,0.0354301854968071,-0.04214970022439957,0.014966198243200779
17774390,0.09694242477416992,-0.06462828069925308,10.07183837890625,0.0354301854968071,-0.04214970022439957,0.014966198243200779
17775467,0.24474969506263733,-0.04428233951330185,10.139459609985352,0.0354301854968071,-0.04214970022439957,0.014966198243200779
17776442,0.15678341686725616,-0.09215514361858368,10.134672164916992,0.0354301854968071,-0.04214970022439957,0.014966198243200779
17777703,0.09873764961957932,-0.0825805813074112,10.107743263244629,0.0354301854968071,-0.04214970022439957,0.014966198243200779
17778862,0.21303395926952362,-0.1023281142115593,10.058673858642578,0.0354301854968071,-0.04214970022439957,0.014966198243200779
17780073,0.14242158830165863,-0.15079931914806366,10.15681266784668,0.0354301854968071,-0.04214970022439957,0.014966198243200779
17781262,0.1831134557723999,-0.10352493077516556,10.080815315246582,0.0354301854968071,-0.04214970022439957,0.014966198243200779
17782460,0.18251505494117737,-0.12746132910251617,10.074831008911133,0.0354301854968071,-0.04214970022439957,0.014966198243200779
17783631,0.17413730919361115,-0.08796627074480057,10.153223037719727,0.0354301854968071,-0.04214970022439957,0.014966198243200779
17784821,0.1813182383775711,-0.08198217302560806,10.086798667907715,0.0354301854968071,-0.04214970022439957,0.014966198243200779
17786031,0.20226258039474487,-0.08497422188520432,10.024564743041992,0.0354301854968071,-0.04214970022439957,0.014966198243200779
17787233,0.20046734809875488,-0.08377739787101746,10.05029582977295,0.0354301854968071,-0.04214970022439957,0.014966198243200779
17788416,0.1873023360967636,-0.050864849239587784,10.052091598510742,0.0354301854968071,-0.04214970022439957,0.014966198243200779
17789615,0.1849086880683899,-0.08198217302560806,10.089791297912598,0.0354301854968071,-0.04214970022439957,0.014966198243200779
17790816,0.1418231725692749,-0.11130426079034805,10.073634147644043,0.0354301854968071,-0.04214970022439957,0.014966198243200779
17792036,0.21901805698871613,-0.10352493077516556,10.012596130371094,0.0354301854968071,-0.04214970022439957,0.014966198243200779
17793221,0.13464225828647614,-0.10532016307115555,10.110136985778809,0.0354301854968071,-0.04214970022439957,0.014966198243200779
17794432,0.11250108480453491,-0.15498818457126617,10.10175895690918,0.0354301854968071,-0.04214970022439957,0.014966198243200779
17795630,0.19568006694316864,-0.11908359080553055,10.016186714172363,0.0354301854968071,-0.04214970022439957,0.014966198243200779
17796818,0.11369790136814117,-0.08796627074480057,10.133475303649902,0.0354301854968071,-0.04214970022439957,0.014966198243200779
17798015,0.14481522142887115,-0.09035991132259369,10.081413269042969,0.0354301854968071,-0.04214970022439957,0.014966198243200779
17799230,0.18849915266036987,-0.11968199908733368,10.034138679504395,0.0354301854968071,-0.04214970022439957,0.014966198243200779
17800425,0.1968768984079361,-0.15857864916324615,10.050894737243652,0.0354301854968071,-0.04214970022439957,0.014966198243200779
17801629,0.11369790136814117,-0.1262645125389099,10.163395881652832,0.0354301854968071,-0.04214970022439957,0.014966198243200779
17802834,0.10771380364894867,-0.07001397013664246,10.084405899047852,0.0354301854968071,-0.04214970022439957,0.014966198243200779
17804037,0.19568006694316864,-0.1340438425540924,10.051492691040039,0.0354301854968071,-0.04214970022439957,0.014966198243200779
17805220,0.10352493077516556,-0.1023281142115593,10.122703552246094,0.0354301854968071,-0.04214970022439957,0.014966198243200779
17806419,0.14242158830165863,-0.07240761071443558,10.123900413513184,0.0354301854968071,-0.04214970022439957,0.014966198243200779
17807607,0.2166244238615036,-0.07719489187002182,10.025162696838379,0.0354301854968071,-0.04214970022439957,0.014966198243200779
17808800,0.22021488845348358,-0.12925656139850616,10.011399269104004,0.0354301854968071,-0.04214970022439957,0.014966198243200779
17809963,0.15199613571166992,-0.07779330015182495,10.237598419189453,0.0354301854968071,-0.04214970022439957,0.014966198243200779
17811162,0.10651697963476181,-0.08317898958921432,10.167584419250488,0.0354301854968071,-0.04214970022439957,0.014966198243200779
17812354,0.2124355584383011,-0.1555866003036499,10.072437286376953,0.0354301854968071,-0.04214970022439957,0.014966198243200779
17813550,0.17832617461681366,-0.13284702599048615,10.087397575378418,0.0354301854968071,-0.04214970022439957,0.014966198243200779
17814750,0.1220756396651268,-0.06343146413564682,10.237598419189453,0.0354301854968071,-0.04214970022439957,0.014966198243200779
17815944,0.10891062021255493,-0.1376343071460724,10.061067581176758,0.0354301854968071,-0.04214970022439957,0.014966198243200779
17817129,0.15079931914806366,-0.08377739787101746,10.02037525177002,0.0354301854968071,-0.04214970022439957,0.014966198243200779
17818351,0.13344542682170868,-0.10950902849435806,10.090988159179688,0.0354301854968071,-0.04214970022439957,0.014966198243200779
17819540,0.14301998913288116,-0.0867694541811943,10.079618453979492,0.0354301854968071,-0.04214970022439957,0.014966198243200779
17820703,0.09873764961957932,-0.1376343071460724,10.056879043579102,0.0354301854968071,-0.04214970022439957,0.014966198243200779
17821884,0.14720885455608368,-0.04847121238708496,10.111932754516602,0.0354301854968071,-0.04214970022439957,0.014966198243200779
17823095,0.1555866003036499,-0.11250108480453491,10.248968124389648,0.0354301854968071,-0.04214970022439957,0.014966198243200779
17824266,0.16635797917842865,-0.12925656139850616,10.065256118774414,0.0354301854968071,-0.04214970022439957,0.014966198243200779
17825477,0.19029438495635986,-0.11489471793174744,10.080815315246582,0.0354301854968071,-0.04214970022439957,0.014966198243200779
17826676,0.13942952454090118,-0.11190266907215118,10.131081581115723,0.0354301854968071,-0.04214970022439957,0.014966198243200779
17827879,0.13344542682170868,-0.08018694072961807,10.064059257507324,0.0354301854968071,-0.04214970022439957,0.014966198243200779
17829071,0.17294049263000488,-0.09694242477416992,10.085003852844238,0.0354301854968071,-0.04214970022439957,0.014966198243200779
17830274,0.1675547957420349,-0.08497422188520432,10.085003852844238,0.0354301854968071,-0.04214970022439957,0.014966198243200779
17831468,0.17653095722198486,-0.10950902849435806,10.15920639038086,0.0354301854968071,-0.04214970022439957,0.014966198243200779
17832662,0.16276751458644867,-0.01496024988591671,10.062862396240234,0.0354301854968071,-0.04214970022439957,0.014966198243200779
17833847,0.12925656139850616,-0.09395036846399307,10.069445610046387,0.0354301854968071,-0.04214970022439957,0.014966198243200779
17835054,0.16456274688243866,-0.1083122119307518,10.107145309448242,0.0354301854968071,-0.04214970022439957,0.014966198243200779
17836241,0.12446928024291992,-0.06821873784065247,10.099365234375,0.0354301854968071,-0.04214970022439957,0.014966198243200779
17837459,0.30040183663368225,-0.06043941155076027,10.07662582397461,0.035124752670526505,-0.04214970022439957,0.014660765416920185
17838644,0.17952300608158112,-0.07839170843362808,10.038328170776367,0.035124752670526505,-0.04214970022439957,0.014660765416920185
17839839,0.1813182383775711,-0.07779330015182495,10.074831008911133,0.035124752670526505,-0.04214970022439957,0.014660765416920185
17841028,0.13224861025810242,-0.07121079415082932,10.102357864379883,0.035124752670526505,-0.04214970022439957,0.014660765416920185
17842214,0.12147723138332367,-0.0963440090417862,10.101161003112793,0.035124752670526505,-0.04214970022439957,0.014660765416920185
17843457,0.1711452603340149,-0.10292652249336243,10.090389251708984,0.035124752670526505,-0.04214970022439957,0.014660765416920185
17844632,0.10771380364894867,-0.07240761071443558,10.12689208984375,0.035124752670526505,-0.04214970022439957,0.014660765416920185
17845823,0.18431028723716736,-0.05984099954366684,10.165789604187012,0.035124752670526505,-0.04214970022439957,0.014660765416920185
17847013,0.1908927857875824,-0.1005328819155693,10.069445610046387,0.035124752670526505,-0.04214970022439957,0.014660765416920185
17848216,0.15917706489562988,-0.0945487841963768,10.178954124450684,0.035124752670526505,-0.04214970022439957,0.014660765416920185
17849397,0.12566609680652618,-0.10950902849435806,10.131081581115723,0.035124752670526505,-0.04214970022439957,0.014660765416920185
17850680,0.16037388145923615,-0.04966802895069122,10.067649841308594,0.035124752670526505,-0.04214970022439957,0.014660765416920185
17851932,0.16037388145923615,-0.037101421505212784,10.128687858581543,0.035124752670526505,-0.04214970022439957,0.014660765416920185
17853147,0.19029438495635986,-0.06402987241744995,10.136466979980469,0.035124752670526505,-0.04214970022439957,0.014660765416920185
17854198,0.12147723138332367,-0.09694242477416992,10.090988159179688,0.035124752670526505,-0.04214970022439957,0.014660765416920185
17855174,0.10891062021255493,-0.09873764961957932,10.093381881713867,0.035124752670526505,-0.04214970022439957,0.014660765416920185
17856408,0.21303395926952362,-0.08018694072961807,10.061665534973145,0.035124752670526505,-0.04214970022439957,0.014660765416920185
17857618,0.12327246367931366,-0.054455310106277466,10.087995529174805,0.035124752670526505,-0.04214970022439957,0.014660765416920185
17858831,0.18012140691280365,-0.1340438425540924,10.111333847045898,0.035124752670526505,-0.04214970022439957,0.014660765416920185
17860034,0.12686292827129364,-0.07599806785583496,10.07303524017334,0.035124752670526505,-0.04214970022439957,0.014660765416920185
17861225,0.18790073692798615,-0.05146326124668121,10.119112968444824,0.035124752670526505,-0.04214970022439957,0.014660765416920185
17862414,0.1813182383775711,-0.06821873784065247,10.10056209564209,0.035124752670526505,-0.04214970022439957,0.014660765416920185
17863613,0.18670392036437988,-0.03410936892032623,10.04550838470459,0.035124752670526505,-0.04214970022439957,0.014660765416920185
17864807,0.1849086880683899,-0.08317898958921432,10.129884719848633,0.035124752670526505,-0.04214970022439957,0.014660765416920185
17866025,0.18071982264518738,-0.13045337796211243,9.965920448303223,0.035124752670526505,-0.04214970022439957,0.014660765416920185
17867224,0.12506769597530365,-0.08976150304079056,10.137065887451172,0.035124752670526505,-0.04214970022439957,0.014660765416920185
17868413,0.13883112370967865,-0.09873764961957932,10.146639823913574,0.035124752670526505,-0.04214970022439957,0.014660765416920185
17869612,0.20944350957870483,-0.11130426079034805,10.141852378845215,0.035124752670526505,-0.04214970022439957,0.014660765416920185
17870786,0.12267404794692993,-0.07300601899623871,10.07303524017334,0.035124752670526505,-0.04214970022439957,0.014660765416920185
17871968,0.11070585250854492,-0.08138375729322433,10.095176696777344,0.035124752670526505,-0.04214970022439957,0.014660765416920185
17873162,0.19627848267555237,-0.14421680569648743,10.13167953491211,0.035124752670526505,-0.04214970022439957,0.014660765416920185
17874368,0.03470778092741966,-0.09215514361858368,10.043713569641113,0.035124752670526505,-0.04214970022439957,0.014660765416920185
17875555,0.19627848267555237,-0.0945487841963768,10.063461303710938,0.035124752670526505,-0.04214970022439957,0.014660765416920185
17876780,0.16994844377040863,-0.0885646790266037,10.135869026184082,0.035124752670526505,-0.04214970022439957,0.014660765416920185
17877850,0.1316501945257187,-0.07599806785583496,10.12928581237793,0.035124752670526505,-0.04214970022439957,0.014660765416920185
17878835,0.15438978374004364,-0.15020091831684113,10.121506690979004,0.035124752670526505,-0.04214970022439957,0.014660765416920185
17880012,0.20585304498672485,-0.12028041481971741,10.04909896850586,0.035124752670526505,-0.04214970022439957,0.014660765416920185
17881190,0.18849915266036987,-0.0610378198325634,10.111333847045898,0.035124752670526505,-0.04214970022439957,0.014660765416920185
17882394,0.19328643381595612,-0.09275355190038681,10.105948448181152,0.035124752670526505,-0.04214970022439957,0.014660765416920185
17883618,0.14122475683689117,-0.07240761071443558,10.054485321044922,0.035124752670526505,-0.04214970022439957,0.014660765416920185
17884819,0.2992050051689148,-0.08198217302560806,10.15920639038086,0.035124752670526505,-0.04214970022439957,0.014660765416920185
17886009,0.15259455144405365,-0.055053722113370895,10.103554725646973,0.035124752670526505,-0.04214970022439957,0.014660765416920185
17887223,0.2106403261423111,-0.0963440090417862,10.089192390441895,0.035124752670526505,-0.04214970022439957,0.014660765416920185
17888415,0.1400279402732849,-0.14481522142887115,10.053886413574219,0.035124752670526505,-0.04214970022439957,0.014660765416920185
17889611,0.15798024833202362,-0.053856901824474335,10.24178695678711,0.035124752670526505,-0.04214970022439957,0.014660765416920185
17890799,0.17772777378559113,-0.05924259126186371,10.046107292175293,0.035124752670526505,-0.04214970022439957,0.014660765416920185
17891987,0.16037388145923615,-0.11728835850954056,10.071240425109863,0.035124752670526505,-0.04214970022439957,0.014660765416920185
17893178,0.17174367606639862,-0.11010744422674179,10.095176696777344,0.035124752670526505,-0.04214970022439957,0.014660765416920185
17894382,0.16695639491081238,-0.11190266907215118,10.159805297851562,0.035124752670526505,-0.04214970022439957,0.014660765416920185
17895605,0.18610551953315735,-0.08497422188520432,10.111333847045898,0.035124752670526505,-0.04214970022439957,0.014660765416920185
17896819,0.08916308730840683,-0.07599806785583496,10.07303524017334,0.035124752670526505,-0.04214970022439957,0.014660765416920185
17898007,0.14301998913288116,-0.0807853490114212,10.046107292175293,0.035124752670526505,-0.04214970022439957,0.014660765416920185
17899199,0.17473572492599487,-0.12925656139850616,10.12928581237793,0.035124752670526505,-0.04214970022439957,0.014660765416920185
17900396,0.15079931914806366,-0.04188869893550873,10.062862396240234,0.035124752670526505,-0.04214970022439957,0.014660765416920185
17901596,0.16097229719161987,-0.08796627074480057,10.146639823913574,0.035124752670526505,-0.04214970022439957,0.014660765416920185
17902803,0.14661045372486115,-0.05924259126186371,10.139459609985352,0.035124752670526505,-0.04214970022439957,0.014660765416920185
17904007,0.19029438495635986,-0.09395036846399307,10.092185020446777,0.035124752670526505,-0.04214970022439957,0.014660765416920185
17905200,0.01555866003036499,-0.10172969847917557,10.165190696716309,0.035124752670526505,-0.04214970022439957,0.014660765416920185
17906401,0.13464225828647614,-0.03291254863142967,10.058673858642578,0.035124752670526505,-0.04214970022439957,0.014660765416920185
17907624,0.16037388145923615,-0.1023281142115593,10.119112968444824,0.035124752670526505,-0.04214970022439957,0.014660765416920185
17908825,0.11668995022773743,-0.07180920243263245,10.108940124511719,0.035124752670526505,-0.04214970022439957,0.014660765416920185
17909995,0.1478072702884674,-0.08138375729322433,10.091586112976074,0.035124752670526505,-0.04214970022439957,0.014660765416920185
17911197,0.15857864916324615,-0.1023281142115593,10.081413269042969,0.035124752670526505,-0.04214970022439957,0.014660765416920185
17912409,0.1340438425540924,-0.09335196018218994,10.249567031860352,0.035124752670526505,-0.04214970022439957,0.014660765416920185
17913635,0.16635797917842865,-0.05924259126186371,10.149632453918457,0.035124752670526505,-0.04214970022439957,0.014660765416920185
17914810,0.15438978374004364,-0.07899012416601181,10.122703552246094,0.03481931984424591,-0.041233405470848083,0.014355333521962166
17916008,0.17772777378559113,-0.06642351299524307,10.115522384643555,0.03481931984424591,-0.041233405470848083,0.014355333521962166
17917223,0.12925656139850616,-0.11728835850954056,10.111932754516602,0.03481931984424591,-0.041233405470848083,0.014355333521962166
17918434,0.18251505494117737,-0.037101421505212784,10.079618453979492,0.03481931984424591,-0.041233405470848083,0.014355333521962166
17919635,0.1340438425540924,-0.054455310106277466,10.110735893249512,0.03481931984424591,-0.041233405470848083,0.014355333521962166
17920820,0.11728835850954056,-0.03410936892032623,10.167584419250488,0.03481931984424591,-0.041233405470848083,0.014355333521962166
17922000,0.15498818457126617,-0.13464225828647614,10.103554725646973,0.03481931984424591,-0.041233405470848083,0.014355333521962166
17923188,0.16815321147441864,-0.09694242477416992,10.089192390441895,0.03481931984424591,-0.041233405470848083,0.014355333521962166
17924360,0.1358390748500824,-0.1160915419459343,9.999431610107422,0.03481931984424591,-0.041233405470848083,0.014355333521962166
17925550,0.15857864916324615,-0.039495062083005905,10.07662582397461,0.03481931984424591,-0.041233405470848083,0.014355333521962166
17926746,0.13224861025810242,-0.06821873784065247,10.113727569580078,0.03481931984424591,-0.041233405470848083,0.014355333521962166
17927927,0.22560057044029236,-0.07061237841844559,10.086798667907715,0.03481931984424591,-0.041233405470848083,0.014355333521962166
17929091,0.15798024833202362,-0.08198217302560806,10.1328763961792,0.03481931984424591,-0.041233405470848083,0.014355333521962166
17930278,0.14062635600566864,-0.08497422188520432,10.114325523376465,0.03481931984424591,-0.041233405470848083,0.014355333521962166
17931456,0.18251505494117737,-0.08198217302560806,10.110136985778809,0.03481931984424591,-0.041233405470848083,0.014355333521962166
17932661,0.11668995022773743,-0.07839170843362808,10.111333847045898,0.03481931984424591,-0.041233405470848083,0.014355333521962166
17933839,0.1478072702884674,-0.10352493077516556,10.162199020385742,0.03481931984424591,-0.041233405470848083,0.014355333521962166
17935025,0.1083122119307518,-0.04488075152039528,10.084405899047852,0.03481931984424591,-0.041233405470848083,0.014355333521962166
17936178,0.10591857135295868,-0.11070585250854492,10.132278442382812,0.03481931984424591,-0.041233405470848083,0.014355333521962166
17937367,0.15678341686725616,-0.06343146413564682,10.079019546508789,0.03481931984424591,-0.041233405470848083,0.014355333521962166
17938563,0.11728835850954056,-0.11788677424192429,10.040721893310547,0.03481931984424591,-0.041233405470848083,0.014355333521962166
17939748,0.15618501603603363,-0.09095831960439682,10.069445610046387,0.03481931984424591,-0.041233405470848083,0.014355333521962166
17940946,0.1358390748500824,-0.1023281142115593,10.135869026184082,0.03481931984424591,-0.041233405470848083,0.014355333521962166
17942137,0.1771293580532074,-0.0670219212770462,10.049697875976562,0.03481931984424591,-0.041233405470848083,0.014355333521962166
17943315,0.15618501603603363,-0.13045337796211243,9.96532154083252,0.03481931984424591,-0.041233405470848083,0.014355333521962166
17944499,0.09873764961957932,-0.11190266907215118,10.058673858642578,0.03481931984424591,-0.041233405470848083,0.014355333521962166
17945667,0.14122475683689117,-0.08018694072961807,10.111333847045898,0.03481931984424591,-0.041233405470848083,0.014355333521962166
17946874,0.13105179369449615,-0.10292652249336243,10.07183837890625,0.03481931984424591,-0.041233405470848083,0.014355333521962166
17948050,0.1280597448348999,-0.1023281142115593,10.126294136047363,0.03481931984424591,-0.041233405470848083,0.014355333521962166
17949240,0.14481522142887115,-0.09694242477416992,10.071240425109863,0.03481931984424591,-0.041233405470848083,0.014355333521962166
17950412,0.1926880180835724,-0.12028041481971741,10.086200714111328,0.03481931984424591,-0.041233405470848083,0.014355333521962166
17951603,0.15259455144405365,-0.07599806785583496,10.138860702514648,0.03481931984424591,-0.041233405470848083,0.014355333521962166
17952852,0.14481522142887115,-0.1005328819155693,10.098767280578613,0.03481931984424591,-0.041233405470848083,0.014355333521962166
17954086,0.22380533814430237,-0.055053722113370895,10.114325523376465,0.03481931984424591,-0.041233405470848083,0.014355333521962166
17955275,0.19927053153514862,-0.07839170843362808,10.087397575378418,0.03481931984424591,-0.041233405470848083,0.014355333521962166
17956339,0.19627848267555237,-0.11369790136814117,10.204686164855957,0.03481931984424591,-0.041233405470848083,0.014355333521962166
17957329,0.1693500280380249,-0.06223464012145996,10.116719245910645,0.03481931984424591,-0.041233405470848083,0.014355333521962166
17958981,0.12387087196111679,-0.09694242477416992,10.106546401977539,0.03481931984424591,-0.041233405470848083,0.014355333521962166
17960210,0.13344542682170868,-0.08736786246299744,10.043115615844727,0.03481931984424591,-0.041233405470848083,0.014355333521962166
17961388,0.15020091831684113,-0.10771380364894867,10.119112968444824,0.03481931984424591,-0.041233405470848083,0.014355333521962166
17962572,0.2064514458179474,-0.07001397013664246,10.10295581817627,0.03481931984424591,-0.041233405470848083,0.014355333521962166
17963753,0.18371187150478363,-0.10352493077516556,10.086798667907715,0.03481931984424591,-0.041233405470848083,0.014355333521962166
17965055,0.1537913680076599,-0.07539965957403183,10.114325523376465,0.03481931984424591,-0.041233405470848083,0.014355333521962166
17966256,0.13883112370967865,-0.09873764961957932,10.146639823913574,0.03481931984424591,-0.041233405470848083,0.014355333521962166
17967436,0.1735389083623886,-0.1496025025844574,10.084405899047852,0.03481931984424591,-0.041233405470848083,0.014355333521962166
17968599,0.16216911375522614,-0.11728835850954056,10.070043563842773,0.03481931984424591,-0.041233405470848083,0.014355333521962166
17969789,0.17653095722198486,-0.06402987241744995,10.077224731445312,0.03481931984424591,-0.041233405470848083,0.014355333521962166
17970966,0.13942952454090118,-0.06163623183965683,10.10534954071045,0.03481931984424591,-0.041233405470848083,0.014355333521962166
17972154,0.17473572492599487,-0.08198217302560806,10.083209037780762,0.03481931984424591,-0.041233405470848083,0.014355333521962166
17973340,0.1316501945257187,-0.07300601899623871,10.072437286376953,0.03481931984424591,-0.041233405470848083,0.014355333521962166
17974522,0.2010657638311386,-0.09754083305597305,10.085601806640625,0.03481931984424591,-0.041233405470848083,0.014355333521962166
17975686,0.13823270797729492,-0.10412333905696869,10.089192390441895,0.03481931984424591,-0.041233405470848083,0.014355333521962166
17976861,0.1418231725692749,-0.11010744422674179,10.146041870117188,0.03481931984424591,-0.041233405470848083,0.014355333521962166
17978069,0.1675547957420349,-0.09395036846399307,9.965920448303223,0.03481931984424591,-0.041233405470848083,0.014355333521962166
17979258,0.08198217302560806,-0.08018694072961807,10.141254425048828,0.03481931984424591,-0.041233405470848083,0.014355333521962166
17980300,0.12686292827129364,-0.12446928024291992,10.124499320983887,0.03481931984424591,-0.041233405470848083,0.014355333521962166
17981281,0.1340438425540924,-0.09155672788619995,10.123302459716797,0.03481931984424591,-0.041233405470848083,0.014355333521962166
17982509,0.14601203799247742,-0.1418231725692749,10.103554725646973,0.03481931984424591,-0.041233405470848083,0.014355333521962166
17983678,0.11489471793174744,-0.09873764961957932,10.101161003112793,0.03481931984424591,-0.041233405470848083,0.014355333521962166
17984878,0.1633659303188324,-0.08916308730840683,10.082012176513672,0.03481931984424591,-0.041233405470848083,0.014355333521962166
17986069,0.12925656139850616,-0.10891062021255493,10.231016159057617,0.03481931984424591,-0.041233405470848083,0.014355333521962166
17987266,0.19029438495635986,-0.11489471793174744,10.029352188110352,0.03481931984424591,-0.041233405470848083,0.014355333521962166
17988456,0.16575957834720612,-0.0748012512922287,10.083209037780762,0.03481931984424591,-0.041233405470848083,0.014355333521962166
17989654,0.17832617461681366,-0.04308551922440529,10.139459609985352,0.03481931984424591,-0.041233405470848083,0.014355333521962166
17990859,0.18790073692798615,-0.09574560075998306,10.057476997375488,0.03481931984424591,-0.041233405470848083,0.014355333521962166
17992055,0.2124355584383011,-0.04607757180929184,10.092185020446777,0.03481931984424591,-0.041233405470848083,0.014355333521962166
17993255,0.14840568602085114,-0.15259455144405365,10.098767280578613,0.03481931984424591,-0.041233405470848083,0.014355333521962166
17994468,0.18610551953315735,-0.0963440090417862,10.144246101379395,0.03481931984424591,-0.041233405470848083,0.014355333521962166
17995665,0.15199613571166992,-0.1340438425540924,10.10056209564209,0.03481931984424591,-0.041233405470848083,0.014355333521962166
17996856,0.20764827728271484,-0.053258489817380905,10.086200714111328,0.03481931984424591,-0.041233405470848083,0.014355333521962166
17998047,0.021542759612202644,-0.11968199908733368,10.092185020446777,0.03481931984424591,-0.041233405470848083,0.014355333521962166
17999236,0.2124355584383011,-0.06821873784065247,10.099365234375,0.03481931984424591,-0.041233405470848083,0.014355333521962166
18000445,0.29980340600013733,-0.1083122119307518,10.088594436645508,0.03481931984424591,-0.041233405470848083,0.014355333521962166
18001640,0.15678341686725616,-0.09574560075998306,10.138860702514648,0.03481931984424591,-0.041233405470848083,0.014355333521962166
18002824,0.1358390748500824,-0.09514719247817993,10.063461303710938,0.03481931984424591,-0.041233405470848083,0.014355333521962166
18003993,0.1693500280380249,-0.08377739787101746,10.12689208984375,0.03481931984424591,-0.041233405470848083,0.014355333521962166
18005165,0.14840568602085114,-0.07958853244781494,10.113128662109375,0.03481931984424591,-0.041233405470848083,0.014355333521962166
18006366,0.13643747568130493,-0.06402987241744995,10.083806991577148,0.03481931984424591,-0.041233405470848083,0.014355333521962166
18007526,0.14242158830165863,-0.1262645125389099,10.250762939453125,0.03481931984424591,-0.041233405470848083,0.014355333521962166
18008740,0.17473572492599487,-0.10472175478935242,10.0778226852417,0.03481931984424591,-0.041233405470848083,0.014355333521962166
18009922,0.07180920243263245,0.0029920500237494707,10.174166679382324,0.03481931984424591,-0.041233405470848083,0.014355333521962166
18011122,0.22560057044029236,-0.08138375729322433,10.095775604248047,0.03481931984424591,-0.041233405470848083,0.014355333521962166
18012176,0.19149120151996613,-0.10113129019737244,10.131081581115723,0.03481931984424591,-0.041233405470848083,0.014355333521962166
18013299,0.15977546572685242,-0.05026644095778465,10.064658164978027,0.03481931984424591,-0.041233405470848083,0.014355333521962166
18014483,0.1771293580532074,-0.10532016307115555,10.10175895690918,0.03481931984424591,-0.041233405470848083,0.014355333521962166
18015680,0.10771380364894867,-0.05804577097296715,10.076027870178223,0.03481931984424591,-0.041233405470848083,0.014355333521962166
18016861,0.2046562284231186,-0.10292652249336243,10.10534954071045,0.03481931984424591,-0.041233405470848083,0.014355333521962166
18018046,0.19448325037956238,-0.053856901824474335,10.07662582397461,0.03481931984424591,-0.041233405470848083,0.014355333521962166
18019263,0.21183714270591736,-0.09275355190038681,10.032343864440918,0.03481931984424591,-0.041233405470848083,0.014355333521962166
18020462,0.15618501603603363,-0.13464225828647614,10.165789604187012,0.03481931984424591,-0.041233405470848083,0.014355333521962166
18021642,0.20226258039474487,-0.02872367948293686,10.110136985778809,0.03481931984424591,-0.041233405470848083,0.014355333521962166
18022831,0.0017952299676835537,-0.1400279402732849,10.061665534973145,0.03481931984424591,-0.041233405470848083,0.014355333521962166
18024023,0.2046562284231186,-0.13823270797729492,10.117318153381348,0.03481931984424591,-0.041233405470848083,0.014355333521962166
18025213,0.1513977348804474,-0.07779330015182495,10.094578742980957,0.03481931984424591,-0.041233405470848083,0.014355333521962166
18026420,0.1908927857875824,-0.05984099954366684,10.117916107177734,0.03481931984424591,-0.041233405470848083,0.014355333521962166
18027621,0.2046562284231186,-0.05684895068407059,10.092185020446777,0.03481931984424591,-0.041233405470848083,0.014355333521962166
18028813,0.16994844377040863,-0.08437581360340118,10.066452980041504,0.03481931984424591,-0.041233405470848083,0.014355333521962166
18029984,0.1573818325996399,-0.0825805813074112,10.138262748718262,0.03481931984424591,-0.041233405470848083,0.014355333521962166
18031169,0.13823270797729492,-0.07958853244781494,10.085003852844238,0.03481931984424591,-0.041233405470848083,0.014355333521962166
18032357,0.20046734809875488,-0.1005328819155693,10.074831008911133,0.03481931984424591,-0.041233405470848083,0.014355333521962166
18033541,0.1537913680076599,-0.06522668898105621,10.070043563842773,0.03481931984424591,-0.041233405470848083,0.014355333521962166
18034717,0.15618501603603363,-0.1262645125389099,10.119112968444824,0.03481931984424591,-0.041233405470848083,0.014355333521962166
18035902,0.13105179369449615,-0.10532016307115555,10.062264442443848,0.03481931984424591,-0.041233405470848083,0.014355333521962166
18037117,0.14421680569648743,-0.11968199908733368,10.117916107177734,0.03481931984424591,-0.041233405470848083,0.014355333521962166
18038329,0.1298549771308899,-0.06642351299524307,10.120908737182617,0.03481931984424591,-0.041233405470848083,0.014355333521962166
18039519,0.1968768984079361,-0.09095831960439682,10.10534954071045,0.03481931984424591,-0.041233405470848083,0.014355333521962166
18040715,0.20345939695835114,-0.12746132910251617,10.133475303649902,0.03481931984424591,-0.041233405470848083,0.014355333521962166
18041899,0.21303395926952362,-0.07061237841844559,10.01917839050293,0.03481931984424591,-0.041233405470848083,0.014355333521962166
18043119,0.14242158830165863,-0.06462828069925308,10.097570419311523,0.03481931984424591,-0.041233405470848083,0.014355333521962166
18044319,0.15199613571166992,-0.14601203799247742,10.115522384643555,0.03481931984424591,-0.041233405470848083,0.014355333521962166
18045511,0.1005328819155693,-0.09514719247817993,10.12928581237793,0.03481931984424591,-0.041233405470848083,0.014355333521962166
18046693,0.2010657638311386,-0.09514719247817993,10.110735893249512,0.03481931984424591,-0.041233405470848083,0.014355333521962166
18047866,0.13344542682170868,-0.04607757180929184,10.076027870178223,0.03481931984424591,-0.041233405470848083,0.014355333521962166
18049080,0.2621035873889923,-0.06522668898105621,10.10056209564209,0.03481931984424591,-0.041233405470848083,0.014355333521962166
18050285,0.09933605790138245,-0.11908359080553055,10.122105598449707,0.03481931984424591,-0.041233405470848083,0.014355333521962166
18051491,0.0885646790266037,-0.11668995022773743,10.056879043579102,0.03481931984424591,-0.041233405470848083,0.014355333521962166
18052679,0.12028041481971741,-0.07240761071443558,10.076027870178223,0.03481931984424591,-0.041233405470848083,0.014355333521962166
18053879,0.1376343071460724,-0.11130426079034805,10.111932754516602,0.03481931984424591,-0.041233405470848083,0.014355333521962166
18055133,0.15917706489562988,-0.10412333905696869,10.155017852783203,0.03481931984424591,-0.041233405470848083,0.014355333521962166
18056358,0.12267404794692993,-0.06582509726285934,10.101161003112793,0.03481931984424591,-0.041233405470848083,0.014355333521962166
18057535,0.21602600812911987,-0.07659648358821869,10.050894737243652,0.03481931984424591,-0.041233405470848083,0.014355333521962166
18058728,0.14840568602085114,-0.11728835850954056,10.138262748718262,0.03481931984424591,-0.041233405470848083,0.014355333521962166
18059783,0.16276751458644867,-0.04667598009109497,10.151427268981934,0.03481931984424591,-0.041233405470848083,0.014355333521962166
18060994,0.20944350957870483,-0.0885646790266037,10.123900413513184,0.03481931984424591,-0.041233405470848083,0.014355333521962166
18062217,0.1711452603340149,-0.0305189099162817,10.093381881713867,0.03481931984424591,-0.041233405470848083,0.014355333521962166
18063393,0.1735389083623886,-0.08976150304079056,10.110735893249512,0.03481931984424591,-0.041233405470848083,0.014355333521962166
18064552,0.14661045372486115,-0.08976150304079056,10.072437286376953,0.03481931984424591,-0.041233405470848083,0.014355333521962166
18065648,0.09694242477416992,-0.13344542682170868,10.117318153381348,0.03481931984424591,-0.041233405470848083,0.014355333521962166
18066822,0.1280597448348999,-0.08317898958921432,10.111932754516602,0.03481931984424591,-0.041233405470848083,0.014355333521962166
18068237,0.16037388145923615,-0.08796627074480057,10.107145309448242,0.03481931984424591,-0.041233405470848083,0.014355333521962166
18069481,0.17054684460163116,-0.13823270797729492,10.095775604248047,0.0354301854968071,-0.04153883457183838,0.014355333521962166
18070665,0.18371187150478363,-0.11070585250854492,10.1544189453125,0.0354301854968071,-0.04153883457183838,0.014355333521962166
18072019,0.18849915266036987,-0.14601203799247742,10.084405899047852,0.0354301854968071,-0.04153883457183838,0.014355333521962166
18073389,0.18849915266036987,-0.05684895068407059,10.119711875915527,0.0354301854968071,-0.04153883457183838,0.014355333521962166
18074600,0.14242158830165863,-0.08138375729322433,10.115522384643555,0.0354301854968071,-0.04153883457183838,0.014355333521962166
18075961,0.13823270797729492,-0.11489471793174744,10.10534954071045,0.0354301854968071,-0.04153883457183838,0.014355333521962166
18077291,0.10292652249336243,-0.04607757180929184,10.085003852844238,0.0354301854968071,-0.04153883457183838,0.014355333521962166
18078578,0.2148291915655136,-0.06163623183965683,10.086798667907715,0.0354301854968071,-0.04153883457183838,0.014355333521962166
18079695,0.16575957834720612,-0.09993447363376617,10.152026176452637,0.0354301854968071,-0.04153883457183838,0.014355333521962166
18081019,0.1436184048652649,-0.09395036846399307,10.143049240112305,0.0354301854968071,-0.04153883457183838,0.014355333521962166
18082215,0.15079931914806366,-0.06522668898105621,10.10534954071045,0.0354301854968071,-0.04153883457183838,0.014355333521962166
18083277,0.10472175478935242,-0.12446928024291992,10.070043563842773,0.0354301854968071,-0.04153883457183838,0.014355333521962166
18084493,0.15618501603603363,-0.10292652249336243,10.053288459777832,0.0354301854968071,-0.04153883457183838,0.014355333521962166
18085640,0.16695639491081238,-0.11070585250854492,10.123900413513184,0.0354301854968071,-0.04153883457183838,0.014355333521962166
18087002,0.16276751458644867,-0.10172969847917557,10.058074951171875,0.0354301854968071,-0.04153883457183838,0.014355333521962166
18088360,0.13942952454090118,-0.10172969847917557,10.067649841308594,0.0354301854968071,-0.04153883457183838,0.014355333521962166
18089528,0.1280597448348999,-0.09155672788619995,10.131081581115723,0.0354301854968071,-0.04153883457183838,0.014355333521962166
18090913,0.14122475683689117,-0.11309949308633804,10.076027870178223,0.0354301854968071,-0.04153883457183838,0.014355333521962166
18092150,0.16097229719161987,-0.11908359080553055,10.104751586914062,0.0354301854968071,-0.04153883457183838,0.014355333521962166
18093364,0.15678341686725616,-0.13344542682170868,10.090389251708984,0.0354301854968071,-0.04153883457183838,0.014355333521962166
18094720,0.15798024833202362,-0.04069187864661217,10.036532402038574,0.0354301854968071,-0.04153883457183838,0.014355333521962166
18096082,0.20226258039474487,-0.020944349467754364,10.104751586914062,0.0354301854968071,-0.04153883457183838,0.014355333521962166
18097377,0.2184196561574936,-0.07659648358821869,10.197504997253418,0.0354301854968071,-0.04153883457183838,0.014355333521962166
18098594,0.13643747568130493,-0.025731630623340607,10.153820991516113,0.0354301854968071,-0.04153883457183838,0.014355333521962166
18099792,0.17294049263000488,-0.0029920500237494707,10.165190696716309,0.0354301854968071,-0.04153883457183838,0.014355333521962166
18101048,0.10950902849435806,-0.1753341257572174,10.202890396118164,0.0354301854968071,-0.04153883457183838,0.014355333521962166
18102409,0.11489471793174744,-0.0670219212770462,10.10295581817627,0.0354301854968071,-0.04153883457183838,0.014355333521962166
18103755,0.1950816661119461,-0.06762032955884933,10.07303524017334,0.0354301854968071,-0.04153883457183838,0.014355333521962166
18104971,0.19448325037956238,-0.11848518252372742,10.000628471374512,0.0354301854968071,-0.04153883457183838,0.014355333521962166
18106327,0.22919103503227234,-0.14242158830165863,10.135869026184082,0.0354301854968071,-0.04153883457183838,0.014355333521962166
18107620,0.1968768984079361,-0.06343146413564682,10.094578742980957,0.0354301854968071,-0.04153883457183838,0.014355333521962166
18108859,0.18849915266036987,-0.11788677424192429,9.974896430969238,0.0354301854968071,-0.04153883457183838,0.014355333521962166
18110241,0.17832617461681366,-0.09873764961957932,10.087995529174805,0.0354301854968071,-0.04153883457183838,0.014355333521962166
18111594,0.08317898958921432,-0.09754083305597305,10.157411575317383,0.0354301854968071,-0.04153883457183838,0.014355333521962166
18112895,0.1513977348804474,-0.09694242477416992,10.127490997314453,0.0354301854968071,-0.04153883457183838,0.014355333521962166
18114248,0.11728835850954056,-0.09813924133777618,10.094578742980957,0.0354301854968071,-0.04153883457183838,0.014355333521962166
18115444,0.14301998913288116,-0.09514719247817993,10.137663841247559,0.0354301854968071,-0.04153883457183838,0.014355333521962166
18116749,0.17832617461681366,-0.0807853490114212,10.102357864379883,0.0354301854968071,-0.04153883457183838,0.014355333521962166
18118099,0.04547915980219841,-0.12327246367931366,10.148435592651367,0.0354301854968071,-0.04153883457183838,0.014355333521962166
18119276,0.15199613571166992,-0.07121079415082932,10.048501014709473,0.0354301854968071,-0.04153883457183838,0.014355333521962166
18120613,0.1496025025844574,-0.0963440090417862,10.04909896850586,0.0354301854968071,-0.04153883457183838,0.014355333521962166
18121945,0.19807371497154236,-0.10113129019737244,10.065256118774414,0.0354301854968071,-0.04153883457183838,0.014355333521962166
18123125,0.12865814566612244,-0.06821873784065247,10.059870719909668,0.0354301854968071,-0.04153883457183838,0.014355333521962166
18124277,0.18670392036437988,-0.09395036846399307,10.051492691040039,0.0354301854968071,-0.04153883457183838,0.014355333521962166
18125402,0.1537913680076599,-0.1735389083623886,10.18194580078125,0.0354301854968071,-0.04153883457183838,0.014355333521962166
18126835,0.08617103844881058,-0.08317898958921432,10.036532402038574,0.0354301854968071,-0.04153883457183838,0.014355333521962166
18128097,0.10950902849435806,-0.040093470364809036,10.217850685119629,0.0354301854968071,-0.04153883457183838,0.014355333521962166
18129318,0.13284702599048615,-0.03410936892032623,10.141254425048828,0.0354301854968071,-0.04153883457183838,0.014355333521962166
18130492,0.2633003890514374,-0.11130426079034805,10.097570419311523,0.0354301854968071,-0.04153883457183838,0.014355333521962166
18131654,0.1633659303188324,-0.07719489187002182,10.044910430908203,0.0354301854968071,-0.04153883457183838,0.014355333521962166
18132832,0.19328643381595612,-0.0825805813074112,10.182544708251953,0.0354301854968071,-0.04153883457183838,0.014355333521962166
18134008,0.09395036846399307,-0.1298549771308899,10.060468673706055,0.0354301854968071,-0.04153883457183838,0.014355333521962166
18135075,0.2399624139070511,-0.09694242477416992,9.980281829833984,0.0354301854968071,-0.04153883457183838,0.014355333521962166
18136317,0.16695639491081238,-0.14122475683689117,10.229220390319824,0.0354301854968071,-0.04153883457183838,0.014355333521962166
18137503,0.19807371497154236,-0.03111732006072998,10.088594436645508,0.0354301854968071,-0.04153883457183838,0.014355333521962166
18138683,0.1555866003036499,-0.11489471793174744,10.10295581817627,0.0354301854968071,-0.04153883457183838,0.014355333521962166
18139839,0.23697036504745483,-0.1023281142115593,10.036532402038574,0.0354301854968071,-0.04153883457183838,0.014355333521962166
18141047,0.1142963096499443,-0.07240761071443558,10.175962448120117,0.0354301854968071,-0.04153883457183838,0.014355333521962166
18142231,0.12327246367931366,-0.07599806785583496,10.108940124511719,0.0354301854968071,-0.04153883457183838,0.014355333521962166
18143417,0.22380533814430237,-0.12028041481971741,10.006013870239258,0.0354301854968071,-0.04153883457183838,0.014355333521962166
18144615,0.15438978374004364,-0.09993447363376617,10.107145309448242,0.0354301854968071,-0.04153883457183838,0.014355333521962166
18145807,0.17593254148960114,-0.05744735896587372,10.171772956848145,0.0354301854968071,-0.04153883457183838,0.014355333521962166
18146980,0.21722283959388733,-0.0825805813074112,10.07303524017334,0.0354301854968071,-0.04214970022439957,0.014660765416920185
18148177,0.1573818325996399,-0.08018694072961807,10.04790210723877,0.0354301854968071,-0.04214970022439957,0.014660765416920185
18149381,0.1316501945257187,-0.12327246367931366,10.135869026184082,0.0354301854968071,-0.04214970022439957,0.014660765416920185
18150569,0.15438978374004364,-0.1142963096499443,10.12689208984375,0.0354301854968071,-0.04214970022439957,0.014660765416920185
18151759,0.11848518252372742,-0.06522668898105621,10.068248748779297,0.0354301854968071,-0.04214970022439957,0.014660765416920185
18152956,0.16695639491081238,-0.056250542402267456,10.078421592712402,0.0354301854968071,-0.04214970022439957,0.014660765416920185
18154137,0.16396434605121613,-0.13524065911769867,10.139459609985352,0.0354301854968071,-0.04214970022439957,0.014660765416920185
18155340,0.14481522142887115,-0.10292652249336243,10.099964141845703,0.0354301854968071,-0.04214970022439957,0.014660765416920185
18156527,0.15678341686725616,-0.11250108480453491,10.096972465515137,0.0354301854968071,-0.04214970022439957,0.014660765416920185
18157788,0.16695639491081238,-0.09095831960439682,10.112530708312988,0.0354301854968071,-0.04214970022439957,0.014660765416920185
18159008,0.1298549771308899,-0.12566609680652618,10.10415267944336,0.0354301854968071,-0.04214970022439957,0.014660765416920185
18160245,0.18251505494117737,-0.08736786246299744,10.090988159179688,0.0354301854968071,-0.04214970022439957,0.014660765416920185
18161302,0.13344542682170868,-0.0610378198325634,10.080216407775879,0.0354301854968071,-0.04214970022439957,0.014660765416920185
18162276,0.1537913680076599,-0.06043941155076027,10.073634147644043,0.0354301854968071,-0.04214970022439957,0.014660765416920185
18163536,0.18431028723716736,-0.10771380364894867,10.055083274841309,0.0354301854968071,-0.04214970022439957,0.014660765416920185
18164723,0.07121079415082932,-0.040093470364809036,10.111932754516602,0.0354301854968071,-0.04214970022439957,0.014660765416920185
18165927,0.23397831618785858,-0.07839170843362808,10.116719245910645,0.0354301854968071,-0.04214970022439957,0.014660765416920185
18167148,0.16097229719161987,-0.10651697963476181,10.01678466796875,0.0354301854968071,-0.04214970022439957,0.014660765416920185
18168364,0.1926880180835724,-0.06343146413564682,10.126294136047363,0.0354301854968071,-0.04214970022439957,0.014660765416920185
18169557,0.09215514361858368,-0.2561194896697998,10.099365234375,0.0354301854968071,-0.04214970022439957,0.014660765416920185
18170746,0.2106403261423111,-0.07001397013664246,10.073634147644043,0.0354301854968071,-0.04214970022439957,0.014660765416920185
18171965,0.17593254148960114,-0.13045337796211243,10.070043563842773,0.0354301854968071,-0.04214970022439957,0.014660765416920185
18173168,0.14900408685207367,-0.10113129019737244,10.102357864379883,0.0354301854968071,-0.04214970022439957,0.014660765416920185
18174360,0.04308551922440529,-0.06043941155076027,10.070043563842773,0.0354301854968071,-0.04214970022439957,0.014660765416920185
18175546,0.1376343071460724,-0.1418231725692749,10.128687858581543,0.0354301854968071,-0.04214970022439957,0.014660765416920185
18176739,0.16635797917842865,-0.07061237841844559,10.007808685302734,0.0354301854968071,-0.04214970022439957,0.014660765416920185
18177939,0.10711538791656494,-0.09035991132259369,10.132278442382812,0.0354301854968071,-0.04214970022439957,0.014660765416920185
18179139,0.16994844377040863,-0.14481522142887115,10.143648147583008,0.0354301854968071,-0.04214970022439957,0.014660765416920185
18180337,0.15917706489562988,-0.06462828069925308,10.066452980041504,0.0354301854968071,-0.04214970022439957,0.014660765416920185
18181541,0.18191663920879364,-0.06522668898105621,10.090988159179688,0.0354301854968071,-0.04214970022439957,0.014660765416920185
18182736,0.1693500280380249,-0.08557263016700745,10.181347846984863,0.0354301854968071,-0.04214970022439957,0.014660765416920185
18183928,0.09694242477416992,-0.11668995022773743,10.094578742980957,0.0354301854968071,-0.04214970022439957,0.014660765416920185
18185004,0.17054684460163116,-0.12566609680652618,10.078421592712402,0.0354301854968071,-0.04214970022439957,0.014660765416920185
18185984,0.07839170843362808,-0.0472743920981884,10.119112968444824,0.0354301854968071,-0.04214970022439957,0.014660765416920185
18187168,0.15798024833202362,-0.06522668898105621,10.046107292175293,0.0354301854968071,-0.04214970022439957,0.014660765416920185
18188355,0.1753341257572174,-0.12566609680652618,10.097570419311523,0.0354301854968071,-0.04214970022439957,0.014660765416920185
18189537,0.12566609680652618,-0.08018694072961807,10.073634147644043,0.0354301854968071,-0.04214970022439957,0.014660765416920185
18190722,0.13105179369449615,-0.0963440090417862,10.084405899047852,0.0354301854968071,-0.04214970022439957,0.014660765416920185
18191939,0.22679738700389862,-0.13823270797729492,10.07542896270752,0.0354301854968071,-0.04214970022439957,0.014660765416920185
18193143,0.16216911375522614,-0.09933605790138245,10.096373558044434,0.0354301854968071,-0.04214970022439957,0.014660765416920185
18194346,0.13045337796211243,-0.052061669528484344,10.063461303710938,0.0354301854968071,-0.04214970022439957,0.014660765416920185
18195548,0.19388484954833984,-0.08198217302560806,10.071240425109863,0.0354301854968071,-0.04214970022439957,0.014660765416920185
18196746,0.1555866003036499,-0.11309949308633804,10.109539031982422,0.0354301854968071,-0.04214970022439957,0.014660765416920185
18197934,0.1711452603340149,-0.1083122119307518,10.134073257446289,0.0354301854968071,-0.04214970022439957,0.014660765416920185
18199140,0.17413730919361115,-0.10651697963476181,10.087397575378418,0.0354301854968071,-0.04214970022439957,0.014660765416920185
18200332,0.15977546572685242,-0.055053722113370895,10.115522384643555,0.0354301854968071,-0.04214970022439957,0.014660765416920185
18201525,0.14301998913288116,-0.11549313366413116,10.087995529174805,0.0354301854968071,-0.04214970022439957,0.014660765416920185
18202746,0.2106403261423111,-0.08796627074480057,10.062862396240234,0.0354301854968071,-0.04214970022439957,0.014660765416920185
18203957,0.17174367606639862,-0.04787280037999153,10.12689208984375,0.0354301854968071,-0.04214970022439957,0.014660765416920185
18205140,0.15020091831684113,-0.055652130395174026,10.178356170654297,0.0354301854968071,-0.04214970022439957,0.014660765416920185
18206349,0.15199613571166992,-0.06343146413564682,10.120309829711914,0.0354301854968071,-0.04214970022439957,0.014660765416920185
18207549,0.17473572492599487,-0.11309949308633804,10.131081581115723,0.0354301854968071,-0.04214970022439957,0.014660765416920185
18208744,0.18849915266036987,-0.06821873784065247,10.151427268981934,0.0354301854968071,-0.04214970022439957,0.014660765416920185
18209952,0.15020091831684113,-0.0688171535730362,10.092185020446777,0.0354301854968071,-0.04214970022439957,0.014660765416920185
18211169,0.1771293580532074,-0.12087882310152054,10.07423210144043,0.0354301854968071,-0.04214970022439957,0.014660765416920185
18212360,0.20345939695835114,-0.11250108480453491,10.061067581176758,0.0354301854968071,-0.04214970022439957,0.014660765416920185
18213539,0.1436184048652649,-0.11908359080553055,10.116121292114258,0.0354301854968071,-0.04214970022439957,0.014660765416920185
18214738,0.11130426079034805,-0.06402987241744995,10.120908737182617,0.0354301854968071,-0.04214970022439957,0.014660765416920185
18215922,0.11309949308633804,-0.09754083305597305,10.13048267364502,0.0354301854968071,-0.04214970022439957,0.014660765416920185
18217128,0.13105179369449615,-0.08198217302560806,9.959338188171387,0.0354301854968071,-0.04214970022439957,0.014660765416920185
18218330,0.16456274688243866,-0.05984099954366684,10.058074951171875,0.0354301854968071,-0.04214970022439957,0.014660765416920185
18219528,0.12566609680652618,-0.07180920243263245,10.062264442443848,0.0354301854968071,-0.04214970022439957,0.014660765416920185
18220742,0.2106403261423111,-0.12686292827129364,10.120908737182617,0.0354301854968071,-0.04214970022439957,0.014660765416920185
18221918,0.15259455144405365,-0.11788677424192429,10.205883026123047,0.0354301854968071,-0.04214970022439957,0.014660765416920185
18223162,0.16216911375522614,-0.05984099954366684,10.082012176513672,0.0354301854968071,-0.04214970022439957,0.014660765416920185
18224372,0.22141170501708984,-0.07420284301042557,10.074831008911133,0.0354301854968071,-0.04214970022439957,0.014049900695681572
18225570,0.19747529923915863,-0.11130426079034805,10.067051887512207,0.0354301854968071,-0.04214970022439957,0.014049900695681572
18226752,0.0963440090417862,-0.02932208962738514,10.113727569580078,0.0354301854968071,-0.04214970022439957,0.014049900695681572
18227936,0.12925656139850616,-0.12387087196111679,10.061067581176758,0.0354301854968071,-0.04214970022439957,0.014049900695681572
18229130,0.09155672788619995,-0.1023281142115593,10.127490997314453,0.0354301854968071,-0.04214970022439957,0.014049900695681572
18230332,0.1436184048652649,-0.10412333905696869,10.079618453979492,0.0354301854968071,-0.04214970022439957,0.014049900695681572
18231515,0.09754083305597305,-0.10352493077516556,10.121506690979004,0.0354301854968071,-0.04214970022439957,0.014049900695681572
18232698,0.14661045372486115,-0.10771380364894867,10.066452980041504,0.0354301854968071,-0.04214970022439957,0.014049900695681572
18233872,0.17174367606639862,-0.1160915419459343,10.10534954071045,0.0354301854968071,-0.04214970022439957,0.014049900695681572
18235081,0.18251505494117737,-0.09813924133777618,10.118515014648438,0.0354301854968071,-0.04214970022439957,0.014049900695681572
18236256,0.18431028723716736,-0.15857864916324615,10.108940124511719,0.0354301854968071,-0.04214970022439957,0.014049900695681572
18237458,0.12746132910251617,-0.06522668898105621,10.087995529174805,0.0354301854968071,-0.04214970022439957,0.014049900695681572
18238649,0.16456274688243866,-0.07121079415082932,10.070642471313477,0.0354301854968071,-0.04214970022439957,0.014049900695681572
18239845,0.11968199908733368,-0.11549313366413116,10.110735893249512,0.0354301854968071,-0.04214970022439957,0.014049900695681572
18241037,0.1513977348804474,-0.10352493077516556,10.112530708312988,0.0354301854968071,-0.04214970022439957,0.014049900695681572
18242248,0.2615051865577698,-0.03111732006072998,10.064059257507324,0.0354301854968071,-0.04214970022439957,0.014049900695681572
18243427,0.25851312279701233,-0.07659648358821869,10.117916107177734,0.0354301854968071,-0.04214970022439957,0.014049900695681572
18244615,0.22978943586349487,-0.09813924133777618,10.087397575378418,0.0354301854968071,-0.04214970022439957,0.014049900695681572
18245816,0.1753341257572174,-0.06762032955884933,10.199299812316895,0.0354301854968071,-0.04214970022439957,0.014049900695681572
18247001,0.14301998913288116,-0.08976150304079056,10.080815315246582,0.0354301854968071,-0.04214970022439957,0.014049900695681572
18248183,0.13643747568130493,-0.07779330015182495,10.141254425048828,0.0354301854968071,-0.04214970022439957,0.014049900695681572
18249372,0.19448325037956238,-0.09754083305597305,10.127490997314453,0.0354301854968071,-0.04214970022439957,0.014049900695681572
18250543,0.20585304498672485,-0.039495062083005905,10.10295581817627,0.0354301854968071,-0.04214970022439957,0.014049900695681572
18251735,0.12446928024291992,-0.11309949308633804,10.208874702453613,0.0354301854968071,-0.04214970022439957,0.014049900695681572
18252927,0.20944350957870483,-0.06043941155076027,10.110136985778809,0.0354301854968071,-0.04214970022439957,0.014049900695681572
18254121,0.19807371497154236,-0.08317898958921432,10.122105598449707,0.0354301854968071,-0.04214970022439957,0.014049900695681572
18255313,0.1083122119307518,-0.08976150304079056,10.141254425048828,0.0354301854968071,-0.04214970022439957,0.014049900695681572
18256510,0.15917706489562988,-0.11908359080553055,10.125696182250977,0.0354301854968071,-0.04214970022439957,0.014049900695681572
18257697,0.17294049263000488,-0.037101421505212784,10.147238731384277,0.0354301854968071,-0.04214970022439957,0.014049900695681572
18258889,0.11908359080553055,-0.08377739787101746,10.113128662109375,0.0354301854968071,-0.04214970022439957,0.014049900695681572
18260164,0.13224861025810242,-0.0610378198325634,10.058673858642578,0.0354301854968071,-0.04214970022439957,0.014049900695681572
18261377,0.22021488845348358,-0.10950902849435806,10.054485321044922,0.0354301854968071,-0.04214970022439957,0.014049900695681572
18262556,0.11130426079034805,-0.07719489187002182,10.07303524017334,0.0354301854968071,-0.04214970022439957,0.014049900695681572
18263625,0.1675547957420349,-0.1418231725692749,10.087995529174805,0.0354301854968071,-0.04214970022439957,0.014049900695681572
18264605,0.15199613571166992,-0.09694242477416992,10.12808895111084,0.0354301854968071,-0.04214970022439957,0.014049900695681572
18265771,0.20405781269073486,-0.04069187864661217,10.061067581176758,0.0354301854968071,-0.04214970022439957,0.014049900695681572
18266935,0.16815321147441864,-0.09155672788619995,10.108940124511719,0.0354301854968071,-0.04214970022439957,0.014049900695681572
18268010,0.10472175478935242,-0.052660081535577774,10.040721893310547,0.0354301854968071,-0.04214970022439957,0.014049900695681572
18269258,0.16815321147441864,-0.12267404794692993,10.139459609985352,0.0354301854968071,-0.04214970022439957,0.014049900695681572
18270420,0.13524065911769867,-0.08138375729322433,10.113128662109375,0.0354301854968071,-0.04214970022439957,0.014049900695681572
18271617,0.16097229719161987,-0.0867694541811943,10.125696182250977,0.0354301854968071,-0.04214970022439957,0.014049900695681572
18272788,0.12087882310152054,-0.11908359080553055,10.079019546508789,0.0354301854968071,-0.04214970022439957,0.014049900695681572
18273966,0.14601203799247742,-0.050864849239587784,10.091586112976074,0.0354301854968071,-0.04214970022439957,0.014049900695681572
18275161,0.1537913680076599,-0.08317898958921432,10.064059257507324,0.0354301854968071,-0.04214970022439957,0.014049900695681572
18276361,0.13224861025810242,-0.11848518252372742,10.10534954071045,0.0354301854968071,-0.04214970022439957,0.014049900695681572
18277540,0.21004191040992737,-0.07839170843362808,10.105948448181152,0.0354301854968071,-0.04214970022439957,0.014049900695681572
18278737,0.1849086880683899,-0.055652130395174026,10.12928581237793,0.0354301854968071,-0.04214970022439957,0.014049900695681572
18279905,0.21423077583312988,-0.1023281142115593,10.088594436645508,0.0354301854968071,-0.04214970022439957,0.014049900695681572
18281116,0.12446928024291992,-0.1262645125389099,10.07303524017334,0.0354301854968071,-0.04214970022439957,0.014049900695681572
18282319,0.2543242573738098,-0.09215514361858368,10.097570419311523,0.0354301854968071,-0.04214970022439957,0.014049900695681572
18283525,0.2716781497001648,-0.1083122119307518,10.144246101379395,0.0354301854968071,-0.04214970022439957,0.014049900695681572
18284707,0.18670392036437988,-0.07121079415082932,10.119112968444824,0.0354301854968071,-0.04214970022439957,0.014049900695681572
18285907,0.21423077583312988,-0.09933605790138245,10.059870719909668,0.0354301854968071,-0.04214970022439957,0.014049900695681572
18287101,0.18191663920879364,-0.08617103844881058,10.104751586914062,0.0354301854968071,-0.04214970022439957,0.014049900695681572
18288177,0.20824667811393738,-0.04607757180929184,10.1328763961792,0.0354301854968071,-0.04214970022439957,0.014049900695681572
18289464,0.14900408685207367,-0.09155672788619995,10.122703552246094,0.0354301854968071,-0.04214970022439957,0.014049900695681572
18290663,0.17174367606639862,-0.08976150304079056,10.070642471313477,0.0354301854968071,-0.04214970022439957,0.014049900695681572
18291848,0.16037388145923615,-0.0825805813074112,10.111932754516602,0.0354301854968071,-0.04214970022439957,0.014049900695681572
18293063,0.1400279402732849,-0.08198217302560806,10.106546401977539,0.0354301854968071,-0.04214970022439957,0.014049900695681572
18294267,0.18251505494117737,-0.09754083305597305,10.10415267944336,0.0354301854968071,-0.04214970022439957,0.014049900695681572
18295477,0.16695639491081238,-0.07121079415082932,10.069445610046387,0.0354301854968071,-0.04214970022439957,0.014049900695681572
18296677,0.007779330015182495,-0.11489471793174744,10.152624130249023,0.0354301854968071,-0.04214970022439957,0.014049900695681572
18297885,0.03231414034962654,-0.09754083305597305,10.116121292114258,0.0354301854968071,-0.04214970022439957,0.014049900695681572
18299082,0.1675547957420349,-0.1316501945257187,10.074831008911133,0.0354301854968071,-0.04214970022439957,0.014049900695681572
18300292,0.28843361139297485,-0.06343146413564682,10.112530708312988,0.0354301854968071,-0.04214970022439957,0.014049900695681572
18301499,0.2776622474193573,-0.1376343071460724,10.083806991577148,0.03573561832308769,-0.042760565876960754,0.014660765416920185
18302698,0.15977546572685242,-0.0825805813074112,10.053886413574219,0.03573561832308769,-0.042760565876960754,0.014660765416920185
18303906,0.10771380364894867,-0.0825805813074112,10.085003852844238,0.03573561832308769,-0.042760565876960754,0.014660765416920185
18305126,0.1675547957420349,-0.10711538791656494,10.053886413574219,0.03573561832308769,-0.042760565876960754,0.014660765416920185
18306324,0.24774174392223358,-0.12387087196111679,10.251361846923828,0.03573561832308769,-0.042760565876960754,0.014660765416920185
18307531,0.14062635600566864,-0.1537913680076599,9.980281829833984,0.03573561832308769,-0.042760565876960754,0.014660765416920185
18308736,0.17653095722198486,-0.08377739787101746,10.079019546508789,0.03573561832308769,-0.042760565876960754,0.014660765416920185
18309956,0.16396434605121613,-0.06762032955884933,10.262731552124023,0.03573561832308769,-0.042760565876960754,0.014660765416920185
18311162,0.12327246367931366,-0.10771380364894867,10.084405899047852,0.03573561832308769,-0.042760565876960754,0.014660765416920185
18312364,0.1400279402732849,-0.08916308730840683,10.07542896270752,0.03573561832308769,-0.042760565876960754,0.014660765416920185
18313538,0.12686292827129364,-0.09993447363376617,10.12928581237793,0.03573561832308769,-0.042760565876960754,0.014660765416920185
18314745,0.11968199908733368,-0.08198217302560806,10.068846702575684,0.03573561832308769,-0.042760565876960754,0.014660765416920185
18315944,0.10711538791656494,-0.09095831960439682,10.072437286376953,0.03573561832308769,-0.042760565876960754,0.014660765416920185
18317156,0.17952300608158112,-0.09095831960439682,10.111333847045898,0.03573561832308769,-0.042760565876960754,0.014660765416920185
18318349,0.11489471793174744,-0.08497422188520432,10.052091598510742,0.03573561832308769,-0.042760565876960754,0.014660765416920185
18319553,0.11908359080553055,-0.09215514361858368,10.104751586914062,0.03573561832308769,-0.042760565876960754,0.014660765416920185
18320759,0.25133219361305237,-0.12147723138332367,10.056879043579102,0.03573561832308769,-0.042760565876960754,0.014660765416920185
18321975,0.19568006694316864,-0.09873764961957932,10.080815315246582,0.03573561832308769,-0.042760565876960754,0.014660765416920185
18323201,0.12925656139850616,-0.06762032955884933,10.153820991516113,0.03573561832308769,-0.042760565876960754,0.014660765416920185
18324381,0.09574560075998306,-0.053856901824474335,10.146041870117188,0.03573561832308769,-0.042760565876960754,0.014660765416920185
18325566,0.10591857135295868,-0.07719489187002182,9.958141326904297,0.03573561832308769,-0.042760565876960754,0.014660765416920185
18326758,0.10651697963476181,-0.09993447363376617,10.064658164978027,0.03573561832308769,-0.042760565876960754,0.014660765416920185
18327947,0.1789245903491974,-0.07121079415082932,10.093381881713867,0.03573561832308769,-0.042760565876960754,0.014660765416920185
18329145,0.1340438425540924,-0.0688171535730362,10.246574401855469,0.03573561832308769,-0.042760565876960754,0.014660765416920185
18330363,0.17054684460163116,-0.04607757180929184,10.111333847045898,0.03573561832308769,-0.042760565876960754,0.014660765416920185
18331542,0.2088450938463211,-0.03410936892032623,10.04909896850586,0.03573561832308769,-0.042760565876960754,0.014660765416920185
18332763,0.15618501603603363,-0.09514719247817993,10.113128662109375,0.03573561832308769,-0.042760565876960754,0.014660765416920185
18333962,0.15857864916324615,-0.09754083305597305,10.136466979980469,0.03573561832308769,-0.042760565876960754,0.014660765416920185
18335143,0.1849086880683899,-0.12925656139850616,10.10175895690918,0.03573561832308769,-0.042760565876960754,0.014660765416920185
18336339,0.15678341686725616,-0.09514719247817993,10.07662582397461,0.03573561832308769,-0.042760565876960754,0.014660765416920185
18337527,0.2010657638311386,-0.053258489817380905,10.052091598510742,0.03573561832308769,-0.042760565876960754,0.014660765416920185
18338741,0.1340438425540924,-0.10771380364894867,10.098169326782227,0.03573561832308769,-0.042760565876960754,0.014660765416920185
18339933,0.18431028723716736,-0.09993447363376617,10.136466979980469,0.03573561832308769,-0.042760565876960754,0.014660765416920185
18341158,0.18251505494117737,-0.07599806785583496,10.120309829711914,0.03573561832308769,-0.042760565876960754,0.014660765416920185
18342348,0.19448325037956238,-0.03231414034962654,10.082610130310059,0.03573561832308769,-0.042760565876960754,0.014660765416920185
18343544,0.17174367606639862,-0.09694242477416992,10.123900413513184,0.03573561832308769,-0.042760565876960754,0.014660765416920185
18344739,0.10292652249336243,-0.11010744422674179,10.143648147583008,0.03573561832308769,-0.042760565876960754,0.014660765416920185
18345961,0.29262250661849976,-0.10532016307115555,10.053886413574219,0.03573561832308769,-0.042760565876960754,0.014660765416920185
18347164,0.20166417956352234,-0.10950902849435806,10.138860702514648,0.03573561832308769,-0.042760565876960754,0.014660765416920185
18348370,0.16994844377040863,-0.11728835850954056,10.099365234375,0.03573561832308769,-0.042760565876960754,0.014660765416920185
18349548,0.1298549771308899,-0.03410936892032623,10.065855026245117,0.03573561832308769,-0.042760565876960754,0.014660765416920185
18350751,0.1220756396651268,-0.1573818325996399,10.110136985778809,0.03573561832308769,-0.042760565876960754,0.014660765416920185
18351940,0.1633659303188324,-0.0688171535730362,10.099964141845703,0.03573561832308769,-0.042760565876960754,0.014660765416920185
18353157,0.1537913680076599,-0.04188869893550873,10.081413269042969,0.03573561832308769,-0.042760565876960754,0.014660765416920185
18354354,0.14720885455608368,-0.11549313366413116,10.07542896270752,0.03573561832308769,-0.042760565876960754,0.014660765416920185
18355549,0.17832617461681366,-0.12506769597530365,10.05029582977295,0.03573561832308769,-0.042760565876960754,0.014660765416920185
18356772,0.12087882310152054,-0.10591857135295868,10.089791297912598,0.03573561832308769,-0.042760565876960754,0.014660765416920185
18358001,0.18012140691280365,-0.12327246367931366,10.098767280578613,0.03573561832308769,-0.042760565876960754,0.014660765416920185
18359193,0.14242158830165863,-0.054455310106277466,10.113128662109375,0.03573561832308769,-0.042760565876960754,0.014660765416920185
18360399,0.12267404794692993,-0.11309949308633804,10.048501014709473,0.03573561832308769,-0.042760565876960754,0.014660765416920185
18361665,0.1651611626148224,-0.10651697963476181,10.125696182250977,0.03573561832308769,-0.042760565876960754,0.014660765416920185
18362908,0.15857864916324615,-0.13643747568130493,10.092782974243164,0.03573561832308769,-0.042760565876960754,0.014660765416920185
18364133,0.12147723138332367,-0.12147723138332367,10.053886413574219,0.03573561832308769,-0.042760565876960754,0.014660765416920185
18365346,0.2878352105617523,-0.08138375729322433,10.124499320983887,0.03573561832308769,-0.042760565876960754,0.014660765416920185
18366412,0.17952300608158112,-0.10891062021255493,10.090389251708984,0.03573561832308769,-0.042760565876960754,0.014660765416920185
18367629,0.17054684460163116,-0.0945487841963768,10.145442962646484,0.03573561832308769,-0.042760565876960754,0.014660765416920185
18368829,0.13823270797729492,-0.13464225828647614,10.12808895111084,0.03573561832308769,-0.042760565876960754,0.014660765416920185
18370060,0.16575957834720612,-0.06522668898105621,10.122703552246094,0.03573561832308769,-0.042760565876960754,0.014660765416920185
18371277,0.14122475683689117,-0.12028041481971741,10.062862396240234,0.03573561832308769,-0.042760565876960754,0.014660765416920185
18372513,0.17653095722198486,-0.08497422188520432,10.121506690979004,0.03573561832308769,-0.042760565876960754,0.014660765416920185
18373745,0.1693500280380249,-0.08497422188520432,10.103554725646973,0.03573561832308769,-0.042760565876960754,0.014660765416920185
18374930,0.21183714270591736,-0.12446928024291992,10.091586112976074,0.03573561832308769,-0.042760565876960754,0.014660765416920185
18376148,0.17593254148960114,-0.0825805813074112,10.031744956970215,0.03573561832308769,-0.042760565876960754,0.014660765416920185
18377351,0.1986721158027649,-0.06941556185483932,10.051492691040039,0.03573561832308769,-0.042760565876960754,0.014660765416920185
18378547,0.16695639491081238,-0.07839170843362808,10.098169326782227,0.03573561832308769,-0.042760565876960754,0.014660765416920185
18379737,0.15259455144405365,-0.09395036846399307,10.137065887451172,0.03573561832308769,-0.042760565876960754,0.014660765416920185
18380928,0.16097229719161987,-0.0825805813074112,10.111333847045898,0.03573561832308769,-0.042760565876960754,0.014660765416920185
18382138,0.1340438425540924,-0.10292652249336243,10.107743263244629,0.03573561832308769,-0.042760565876960754,0.014660765416920185
18383367,0.18849915266036987,-0.08736786246299744,10.146041870117188,0.03573561832308769,-0.042760565876960754,0.014660765416920185
18384539,0.1753341257572174,-0.11010744422674179,10.111333847045898,0.03573561832308769,-0.042760565876960754,0.014660765416920185
18385745,0.04188869893550873,-0.06163623183965683,10.106546401977539,0.03573561832308769,-0.042760565876960754,0.014660765416920185
18386937,0.20704986155033112,-0.08497422188520432,10.095176696777344,0.03573561832308769,-0.042760565876960754,0.014660765416920185
18388148,0.01436183974146843,-0.13703589141368866,10.079019546508789,0.03573561832308769,-0.042760565876960754,0.014660765416920185
18389351,0.15079931914806366,-0.10113129019737244,10.053886413574219,0.03573561832308769,-0.042760565876960754,0.014660765416920185
18390421,0.1478072702884674,-0.10472175478935242,10.083209037780762,0.03573561832308769,-0.042760565876960754,0.014660765416920185
18391666,0.17234207689762115,-0.07180920243263245,10.151427268981934,0.03573561832308769,-0.042760565876960754,0.014660765416920185
18392861,0.18790073692798615,-0.12566609680652618,10.087995529174805,0.03573561832308769,-0.042760565876960754,0.014660765416920185
18394068,0.005385689903050661,-0.13823270797729492,10.107145309448242,0.03573561832308769,-0.042760565876960754,0.014660765416920185
18395272,0.11788677424192429,-0.10532016307115555,10.044910430908203,0.03573561832308769,-0.042760565876960754,0.014660765416920185
18396466,0.16037388145923615,-0.10591857135295868,10.099365234375,0.03573561832308769,-0.042760565876960754,0.014660765416920185
18397680,0.16635797917842865,-0.10532016307115555,10.061067581176758,0.03573561832308769,-0.042760565876960754,0.014660765416920185
18398729,0.1436184048652649,-0.07599806785583496,10.135869026184082,0.03573561832308769,-0.042760565876960754,0.014660765416920185
18399708,0.30578750371932983,-0.07121079415082932,10.145442962646484,0.03573561832308769,-0.042760565876960754,0.014660765416920185
18400684,0.12028041481971741,-0.0867694541811943,10.004817008972168,0.03573561832308769,-0.042760565876960754,0.014660765416920185
18401854,0.1555866003036499,-0.15438978374004364,10.076027870178223,0.03573561832308769,-0.042760565876960754,0.014660765416920185
18403038,0.18610551953315735,-0.052061669528484344,10.129884719848633,0.03573561832308769,-0.042760565876960754,0.014660765416920185
18404243,0.17653095722198486,-0.09754083305597305,10.163993835449219,0.03573561832308769,-0.042760565876960754,0.014660765416920185
18405441,0.1496025025844574,-0.1142963096499443,10.079019546508789,0.03573561832308769,-0.042760565876960754,0.014660765416920185
18406639,0.14062635600566864,-0.11010744422674179,10.079019546508789,0.03573561832308769,-0.042760565876960754,0.014660765416920185
18407833,0.14421680569648743,-0.08796627074480057,10.125097274780273,0.03573561832308769,-0.042760565876960754,0.014660765416920185
18409027,0.1968768984079361,-0.07539965957403183,10.153223037719727,0.03573561832308769,-0.042760565876960754,0.014660765416920185
18410253,0.21004191040992737,-0.1280597448348999,10.079019546508789,0.03573561832308769,-0.042760565876960754,0.014660765416920185
18411444,0.13045337796211243,-0.09574560075998306,10.117318153381348,0.03573561832308769,-0.042760565876960754,0.014660765416920185
18412521,0.19208961725234985,-0.10292652249336243,10.172969818115234,0.03573561832308769,-0.042760565876960754,0.014660765416920185
18413687,0.10711538791656494,-0.05804577097296715,10.082012176513672,0.03573561832308769,-0.042760565876960754,0.014660765416920185
18414867,0.16216911375522614,-0.07899012416601181,10.073634147644043,0.03573561832308769,-0.042760565876960754,0.014660765416920185
18416067,0.2064514458179474,-0.055652130395174026,10.108342170715332,0.03573561832308769,-0.042760565876960754,0.014660765416920185
18417276,0.1418231725692749,-0.0807853490114212,10.093979835510254,0.03573561832308769,-0.042760565876960754,0.014660765416920185
18418464,0.20525462925434113,-0.09215514361858368,10.055083274841309,0.03573561832308769,-0.042760565876960754,0.014660765416920185
18419691,0.12925656139850616,-0.06762032955884933,10.061665534973145,0.03573561832308769,-0.042760565876960754,0.014660765416920185
18420870,0.16635797917842865,-0.13224861025810242,10.096373558044434,0.03573561832308769,-0.042760565876960754,0.014660765416920185
18422067,0.15438978374004364,-0.05744735896587372,10.128687858581543,0.03573561832308769,-0.042760565876960754,0.014660765416920185
18423259,0.13823270797729492,-0.054455310106277466,10.060468673706055,0.03573561832308769,-0.042760565876960754,0.014660765416920185
18424470,0.006582510191947222,-0.09155672788619995,10.079618453979492,0.03573561832308769,-0.042760565876960754,0.014660765416920185
18425670,0.16456274688243866,-0.10172969847917557,10.117916107177734,0.03573561832308769,-0.042760565876960754,0.014660765416920185
18426848,0.1693500280380249,-0.1083122119307518,10.098169326782227,0.03573561832308769,-0.042760565876960754,0.014660765416920185
18428040,0.16635797917842865,-0.055053722113370895,10.153820991516113,0.03573561832308769,-0.042760565876960754,0.014660765416920185
18429245,0.17234207689762115,-0.09754083305597305,10.049697875976562,0.03573561832308769,-0.042760565876960754,0.014660765416920185
18430432,0.11908359080553055,-0.055053722113370895,10.146639823913574,0.03573561832308769,-0.042760565876960754,0.014660765416920185
18431640,0.15977546572685242,-0.06163623183965683,10.12689208984375,0.03573561832308769,-0.042760565876960754,0.014660765416920185
18432819,0.15259455144405365,-0.08916308730840683,10.082012176513672,0.03573561832308769,-0.042760565876960754,0.014660765416920185
18434022,0.17473572492599487,-0.0945487841963768,10.152624130249023,0.03573561832308769,-0.042760565876960754,0.014660765416920185
18435218,0.1358390748500824,-0.04966802895069122,10.10415267944336,0.03573561832308769,-0.042760565876960754,0.014660765416920185
18436421,0.15917706489562988,-0.05924259126186371,10.129884719848633,0.03573561832308769,-0.042760565876960754,0.014660765416920185
18437610,0.007779330015182495,-0.10292652249336243,10.111932754516602,0.03573561832308769,-0.042760565876960754,0.014660765416920185
18438798,0.1142963096499443,-0.07779330015182495,10.123302459716797,0.03573561832308769,-0.042760565876960754,0.014660765416920185
18439977,0.15199613571166992,-0.09514719247817993,10.153820991516113,0.03573561832308769,-0.042760565876960754,0.014660765416920185
18441179,0.16815321147441864,-0.08138375729322433,10.107743263244629,0.03573561832308769,-0.042760565876960754,0.014660765416920185
18442364,0.12028041481971741,-0.06762032955884933,10.051492691040039,0.03573561832308769,-0.042760565876960754,0.014660765416920185
18443590,0.1789245903491974,-0.11070585250854492,10.1328763961792,0.03573561832308769,-0.042760565876960754,0.014660765416920185
18444774,0.11728835850954056,-0.12387087196111679,10.010202407836914,0.03573561832308769,-0.042760565876960754,0.014660765416920185
18445967,0.1358390748500824,-0.0945487841963768,10.119711875915527,0.03573561832308769,-0.042760565876960754,0.014660765416920185
18447164,0.1986721158027649,-0.0748012512922287,10.134672164916992,0.03573561832308769,-0.042760565876960754,0.014660765416920185
18448367,0.15678341686725616,-0.11369790136814117,10.143049240112305,0.03573561832308769,-0.042760565876960754,0.014660765416920185
18449544,0.1753341257572174,-0.11250108480453491,10.096373558044434,0.03573561832308769,-0.042760565876960754,0.014660765416920185
18450761,0.30219703912734985,-0.10412333905696869,10.067649841308594,0.03573561832308769,-0.042760565876960754,0.014660765416920185
18451941,0.17174367606639862,-0.11489471793174744,10.1879301071167,0.03573561832308769,-0.042760565876960754,0.014660765416920185
18453146,0.18431028723716736,-0.05146326124668121,10.07183837890625,0.03573561832308769,-0.042760565876960754,0.014660765416920185
18454345,0.14601203799247742,-0.08736786246299744,10.111932754516602,0.03573561832308769,-0.042760565876960754,0.014660765416920185
18455551,0.20046734809875488,-0.08497422188520432,10.080216407775879,0.03573561832308769,-0.042760565876960754,0.014660765416920185
18456731,0.14840568602085114,-0.11668995022773743,10.098767280578613,0.0354301854968071,-0.04184426739811897,0.014049900695681572
18457923,0.1908927857875824,-0.11728835850954056,10.067051887512207,0.0354301854968071,-0.04184426739811897,0.014049900695681572
18459134,0.16097229719161987,-0.12147723138332367,10.091586112976074,0.0354301854968071,-0.04184426739811897,0.014049900695681572
18460355,0.12327246367931366,-0.09933605790138245,10.061665534973145,0.0354301854968071,-0.04184426739811897,0.014049900695681572
18461547,0.1537913680076599,-0.07779330015182495,10.063461303710938,0.0354301854968071,-0.04184426739811897,0.014049900695681572
18462736,0.11788677424192429,-0.10591857135295868,10.093381881713867,0.0354301854968071,-0.04184426739811897,0.014049900695681572
18463995,0.15199613571166992,-0.10292652249336243,10.103554725646973,0.0354301854968071,-0.04184426739811897,0.014049900695681572
18465230,0.12925656139850616,-0.06343146413564682,10.089192390441895,0.0354301854968071,-0.04184426739811897,0.014049900695681572
18466451,0.18790073692798615,-0.09694242477416992,10.062264442443848,0.0354301854968071,-0.04184426739811897,0.014049900695681572
18467658,0.14062635600566864,-0.09933605790138245,10.076027870178223,0.0354301854968071,-0.04184426739811897,0.014049900695681572
18468715,0.13643747568130493,-0.08736786246299744,10.143049240112305,0.0354301854968071,-0.04184426739811897,0.014049900695681572
18469939,0.12746132910251617,-0.11968199908733368,10.13048267364502,0.0354301854968071,-0.04184426739811897,0.014049900695681572
18471145,0.2896304428577423,-0.10891062021255493,10.083209037780762,0.0354301854968071,-0.04184426739811897,0.014049900695681572
18472367,0.19747529923915863,-0.10591857135295868,10.102357864379883,0.0354301854968071,-0.04184426739811897,0.014049900695681572
18473555,0.1555866003036499,-0.10950902849435806,10.076027870178223,0.0354301854968071,-0.04184426739811897,0.014049900695681572
18474738,0.1831134557723999,-0.12686292827129364,10.069445610046387,0.0354301854968071,-0.04184426739811897,0.014049900695681572
18475936,0.17772777378559113,-0.0945487841963768,10.026958465576172,0.0354301854968071,-0.04184426739811897,0.014049900695681572
18477132,0.1160915419459343,-0.04787280037999153,10.131081581115723,0.0354301854968071,-0.04184426739811897,0.014049900695681572
18478328,0.1496025025844574,-0.11848518252372742,10.091586112976074,0.0354301854968071,-0.04184426739811897,0.014049900695681572
18479517,0.12566609680652618,-0.12028041481971741,10.117318153381348,0.0354301854968071,-0.04184426739811897,0.014049900695681572
18480719,0.17234207689762115,-0.07719489187002182,10.134073257446289,0.0354301854968071,-0.04184426739811897,0.014049900695681572
18481909,0.07180920243263245,-0.0963440090417862,10.104751586914062,0.0354301854968071,-0.04184426739811897,0.014049900695681572
18483109,0.10891062021255493,-0.2710797190666199,10.092185020446777,0.0354301854968071,-0.04184426739811897,0.014049900695681572
18484327,0.19747529923915863,-0.09275355190038681,10.089791297912598,0.0354301854968071,-0.04184426739811897,0.014049900695681572
18485544,0.21722283959388733,-0.0867694541811943,10.084405899047852,0.0354301854968071,-0.04184426739811897,0.014049900695681572
18486736,0.1400279402732849,-0.08976150304079056,10.247173309326172,0.0354301854968071,-0.04184426739811897,0.014049900695681572
18487923,0.17234207689762115,-0.09574560075998306,10.056280136108398,0.0354301854968071,-0.04184426739811897,0.014049900695681572
18489127,0.1651611626148224,-0.09035991132259369,10.079019546508789,0.0354301854968071,-0.04184426739811897,0.014049900695681572
18490352,0.17234207689762115,-0.10532016307115555,10.113128662109375,0.0354301854968071,-0.04184426739811897,0.014049900695681572
18491534,0.12446928024291992,-0.0867694541811943,10.117318153381348,0.0354301854968071,-0.04184426739811897,0.014049900695681572
18492598,0.16994844377040863,-0.12506769597530365,10.125097274780273,0.0354301854968071,-0.04184426739811897,0.014049900695681572
18493574,0.18849915266036987,-0.05924259126186371,10.095775604248047,0.0354301854968071,-0.04184426739811897,0.014049900695681572
18494735,0.1555866003036499,-0.07420284301042557,10.138860702514648,0.0354301854968071,-0.04184426739811897,0.014049900695681572
18495917,0.18191663920879364,-0.1005328819155693,10.034737586975098,0.0354301854968071,-0.04184426739811897,0.014049900695681572
18497130,0.17054684460163116,-0.13284702599048615,10.122105598449707,0.0354301854968071,-0.04184426739811897,0.014049900695681572
18498293,0.15618501603603363,-0.07899012416601181,10.079019546508789,0.0354301854968071,-0.04184426739811897,0.014049900695681572
18499506,0.1573818325996399,-0.06223464012145996,10.10415267944336,0.0354301854968071,-0.04184426739811897,0.014049900695681572
18500691,0.09275355190038681,-0.12327246367931366,10.110136985778809,0.0354301854968071,-0.04184426739811897,0.014049900695681572
18501911,0.15917706489562988,-0.07779330015182495,10.119112968444824,0.0354301854968071,-0.04184426739811897,0.014049900695681572
