time_micros,gyro_x,gyro_y,gyro_z,rotation_x,rotation_y,rotation_z
17408024,4.641488761206226e-06,-5.474576040940279e-06,1.785187892030083e-06,0.0,0.0,0.0
17409223,4.546639697740546e-05,-5.3627027957231785e-05,1.748707484906287e-05,3.123434155109563e-06,-3.6840502413655653e-06,1.2013207662719276e-06
17410389,0.00021956277250096743,-0.0002589714541296959,8.444721579104294e-05,1.7791737711220463e-05,-2.0985124819138498e-05,6.842975686101116e-06
17411577,0.0007083275963706382,-0.0008354632506359349,0.0002724336767117408,6.600574567142465e-05,-7.785292444040534e-05,2.5386823935004446e-05
17412747,0.001743742473979817,-0.002056721724591435,0.0006706701473426323,0.00018289937432201545,-0.00021572744954919537,7.034590953413982e-05
17413928,0.003536933562976772,-0.004171767451880692,0.0013603589917774688,0.0004222306370681428,-0.0004980155825786133,0.0001623963904077859
17415105,0.006208787182745652,-0.007323184284760183,0.002387994945817481,0.000840933440893915,-0.0009918701314159542,0.00032343592194692186
17416296,0.00974893447197156,-0.01149874228524087,0.0037495899860878834,0.001506193645686257,-0.0017765359499755788,0.000579305218145779
17417471,0.014009986189012563,-0.016524597746594573,0.0053884559456811474,0.002449381514294973,-0.002889013858087309,0.0009420697640869319
17418682,0.018732209035893496,-0.022094398598767,0.007204695407506077,0.0037491193784570482,-0.00442203788049072,0.0014419689165545953
17419844,0.023588072500157382,-0.02782182683294152,0.00907233510410685,0.0053195588937441,-0.006274351003813257,0.002045984083258878
17421028,0.028234599481395097,-0.03330234538933152,0.01085946077297111,0.007234943383391123,-0.008533522268828909,0.0027826703870325554
17422201,0.03236276043129071,-0.03817145790735263,0.012447214901711025,0.009409978147893388,-0.011098947679201283,0.00361922217592989
17423390,0.03573602562103805,-0.04215018062707092,0.01374462452245062,0.011844483523590391,-0.013970415323963484,0.0045555703485466
17424567,0.03821365260596978,-0.04507250965293477,0.014697557928523957,0.014421502677187467,-0.01700997612894543,0.0055467315098063266
17425756,0.0397576146208047,-0.046893592906476836,0.015291389441739063,0.017129977523989058,-0.020204587226083114,0.006588452550432466
17426892,0.040424798553899806,-0.04768052773772108,0.015547998633400504,0.019761147035687553,-0.02330801767899958,0.007600440771414873
17428089,0.04034797033616549,-0.047589909847273404,0.01551844932042761,0.022528333825068598,-0.026571878754042818,0.008664743327240723
17429277,0.03970995948583889,-0.04683738429033327,0.015273060544630962,0.02523128696787938,-0.029759977072645726,0.00970434063567342
17430464,0.03871563285472334,-0.04566458887239086,0.014890627244904793,0.027864340653654993,-0.032865629884548754,0.010717053538955431
17431623,0.037565683386838515,-0.0443082383286188,0.014448339011079453,0.030358920229147452,-0.03580795427200685,0.011676507171827648
17432806,0.03643527359828192,-0.042974934584225355,0.014013566038142416,0.03282853612640668,-0.03872083432343819,0.012626359390495232
17433954,0.03545937403829528,-0.04182387365866165,0.013638220073096235,0.03516089612950914,-0.04147182282061027,0.01352342088339258
17435141,0.03472542955345435,-0.04095819561896148,0.013355933747486266,0.037522575728521794,-0.04425739340244483,0.014431759143359917
17436338,0.03427293205990032,-0.04042448067010666,0.013181896259036678,0.03987311787573116,-0.047029827503736965,0.015335813768241559
17437535,0.03409868430978911,-0.0402189576995632,0.013114877897102332,0.042211709581117314,-0.049788166213259356,0.016235272069584604
17438700,0.03416605513139322,-0.04029842071343388,0.013140789750214729,0.04449227951842805,-0.052478068996788876,0.017112414307446432
17439904,0.03441635265921169,-0.0405936434144679,0.01323705802512704,0.046866461269770496,-0.055278385705809355,0.018025561087289938
17441123,0.03478053830072531,-0.04102319567454239,0.013377129418408224,0.04929565771738277,-0.05814359153846961,0.018959867364595866
17442349,0.03518980450129867,-0.04150591987173412,0.013534539487347131,0.05176755236243581,-0.06105915934348978,0.019910596024676874
17443515,0.035583965246090345,-0.04197082737894468,0.01368613976590363,0.05414480601984922,-0.06386309932604205,0.020824924306793783
17444701,0.03591708121958439,-0.042363733366909115,0.01381426128749253,0.056585472059093804,-0.06674183339388298,0.021763641965266818
17445753,0.03616019309536459,-0.04265048068417944,0.013907765850226584,0.058765033485274905,-0.06931259794323591,0.022601934777796033
17447028,0.0363014145132309,-0.04281704952243261,0.013962081777344043,0.06141692873377784,-0.07244047413500439,0.0236218944355954
17448243,0.036343908531879875,-0.0428671706685448,0.013978425629818643,0.0639469871061896,-0.07542464530515854,0.024594993758879122
17449422,0.036302425044821694,-0.04281824143139072,0.013962510114189086,0.06639927850501523,-0.0783170913344636,0.025538185389101246
17450629,0.03619899741951464,-0.04269627124499772,0.013923124965510021,0.0689026565831302,-0.08126979491940757,0.02650105310097669
17451807,0.03605812662435766,-0.042530303851809954,0.013870834510151926,0.07133637922399907,-0.08414035346188221,0.027437257145817396
17453004,0.03590201918966693,-0.042346978399708336,0.01381668759975127,0.0737986491321511,-0.08704463831739184,0.028384847695738232
17454173,0.03574717725784993,-0.04216659380309557,0.013770802887718467,0.0761929509618303,-0.08986890474732152,0.029307199083440476
17455351,0.035603366763298006,-0.042001736513670763,0.013741028789019533,0.07859597984587845,-0.09270378793950818,0.03023464196534764
17456526,0.035474609394867795,-0.04185812173585977,0.013732027437233639,0.0809842206887647,-0.09552178305323443,0.03115911694451346
17457718,0.0353610678088109,-0.0417364976805571,0.013744964943111102,0.08339926030263346,-0.09837224265438857,0.03209785089362174
17458902,0.035260944459726995,-0.041634696445156084,0.013777787948102874,0.08579129940887154,-0.10119666564132565,0.03303251126855751
17460103,0.03517196281222333,-0.04154935455015977,0.013825947373962283,0.08821156064549564,-0.10405576943264307,0.033983905555747436
17461312,0.03509229106951972,-0.041477116033972646,0.013883377801827315,0.09064242461311492,-0.10692891404004438,0.03494561543044469
17462512,0.0350209420928734,-0.041415309172410104,0.013943538047127134,0.09305028722490735,-0.10977642094741463,0.035904302488341255
17463692,0.034957771383962916,-0.041362185034330264,0.014000348834641262,0.0954137478834588,-0.11257287773542407,0.03685085235026555
17464883,0.03490322439645263,-0.04131684676751616,0.014048912239386063,0.09779551855559271,-0.11539230933802186,0.03780953991354276
17466074,0.0348579762695346,-0.041279002099685304,0.014085952360977178,0.10017420152842302,-0.11820915844798481,0.038770755067803996
17467272,0.03482257786265905,-0.04124865301785705,0.014109968059784955,0.1025644352468917,-0.12104048017475509,0.0397392681272343
17468330,0.03479718407167057,-0.0412258072075753,0.014121130106532147,0.10467380347674057,-0.12353954469084998,0.04059527599140316
17469308,0.03478140251924974,-0.04121026367766332,0.01412098335412871,0.1066227888401015,-0.12584877304021164,0.041386549139696374
17470461,0.0347742683950541,-0.04120149548074257,0.014112028697583323,0.1089200477334411,-0.12857062762638863,0.04231881845620047
17471670,0.03477432742746024,-0.041198628765827895,0.014097260854995797,0.11132888616961349,-0.13142448125434855,0.04329534413777114
17472855,0.034779794598353564,-0.041200500994022345,0.01407972899066623,0.1136902776693523,-0.13422180981697526,0.04425129435947714
17474080,0.03478875065588399,-0.04120577208972901,0.014062171268793229,0.11613200718856834,-0.13711393293656657,0.045238280613479814
17475275,0.03479934014206125,-0.04121305972167425,0.01404675508886253,0.11851466429594479,-0.13993572752409925,0.04620004025350247
17476483,0.03480994142128277,-0.041221072371972596,0.014034935208492728,0.12092397527201765,-0.1427887740405914,0.04717144445775139
17477665,0.034819288841506035,-0.04122871967130568,0.01402742475212522,0.12328206325820318,-0.1455809318294899,0.048121432320389124
17478834,0.03482653763650412,-0.04123518698404697,0.014024260949619852,0.12561470178188305,-0.14834281377980213,0.04906076001637384
17480018,0.034831271832608326,-0.04123996895980559,0.014024939192916835,0.12797759266924338,-0.15114045916348062,0.050012186687613036
17481227,0.03483346310656488,-0.04124286360256175,0.014028585693901606,0.13039052746923685,-0.15399737696500837,0.05098395519974602
17482421,0.03483339363012403,-0.041243933610328305,0.014034140090781869,0.1327735203599389,-0.15681892233671751,0.051944047013324814
17483614,0.03483155829236183,-0.041243444959300275,0.014040523772014632,0.13515439199177026,-0.1596380712039139,0.05290377107919224
17484790,0.03482856156352143,-0.04124179393855865,0.014046776239559244,0.13750113478267342,-0.1624169365450136,0.05385024056847891
17486008,0.03482502217627477,-0.041239433338792576,0.014052149272757372,0.13993144281551217,-0.16529488233943912,0.0548308875034146
17487239,0.03482149541836675,-0.04123680668637384,0.014056155877333602,0.14238744135051803,-0.1682033598644059,0.055822283703600095
17488393,0.03481841884957093,-0.04123429679673624,0.014058577157515177,0.14468961186112467,-0.17092974392340568,0.05675182739979578
17489702,0.03481608330446859,-0.04123219200044038,0.014059434784902847,0.14730082421509588,-0.17402216555484876,0.057806287474444065
17490913,0.03481462761725081,-0.04123067060809294,0.014058939418695023,0.14971644373194723,-0.17688296342718984,0.058781769643014
17492097,0.03481405293440441,-0.04122980185598566,0.014057426299092408,0.15207816652019673,-0.17967991909281605,0.05973540018115498
17493281,0.03481425092008443,-0.04122955991617428,0.01405528854654469,0.15443990273943897,-0.18247685834568025,0.060688885698004784
17494457,0.034815039603315015,-0.041229846640256036,0.014052916852074548,0.15678573442287147,-0.18525491867977123,0.061635768940760026
17495648,0.03481620093660699,-0.041230518503280585,0.014050651699373161,0.15916156667733675,-0.18806845930434368,0.06259457520352286
17496813,0.03481751511914115,-0.04123141360793004,0.014048751472059057,0.16148562129725733,-0.19082063897464663,0.06353232350781829
17497990,0.03481878813125694,-0.04123237543254083,0.014047377162155539,0.16383370052549812,-0.1936012321394404,0.064479638342596
17499166,0.03481987047712748,-0.04123327107263878,0.01404659220345731,0.16617985771241925,-0.19637952321122612,0.06542609543156018
17500370,0.03482066661698144,-0.041234002854545766,0.014046374386549251,0.16858193070574934,-0.19922401455176514,0.06639507218721134
17501547,0.03482113581944213,-0.041234513239597294,0.014046635937686326,0.17093016825534932,-0.2020047518841366,0.06734233703593631
17502727,0.03482128607195739,-0.04123478377826859,0.01404724762946627,0.1732844012757355,-0.20479259519809917,0.06829205767940973
17503903,0.03482116320994305,-0.041234829451476,0.014048063130147864,0.17563064556678265,-0.20757099127319648,0.06923861387917413
17505103,0.03482083757631875,-0.04123469003315606,0.014048940536883409,0.17802475000546297,-0.2104060797233125,0.07020454787844654
17506287,0.03482039035892749,-0.04123442014397683,0.014049759004114058,0.18038690271320343,-0.2132033486852967,0.07115765828107475
17507480,0.03481990135777219,-0.04123407948893621,0.014050429406672407,0.18276697754850202,-0.21602185738639654,0.0721180594353559
17508670,0.0348194394025656,-0.04123372444642371,0.01405089892822859,0.18514103578660848,-0.21883325426381525,0.07307607751162924
17509862,0.034819056066750564,-0.041233401773045526,0.014051150237834244,0.1875190578580395,-0.22164935414051806,0.07403572286590036
17511052,0.03481878278639633,-0.04123314477263002,0.014051196451369416,0.18989307132675698,-0.22446071149463115,0.07499376122788984
17512247,0.03481863105013257,-0.04123297190316675,0.014051073352928045,0.1922770492528339,-0.22728386943849654,0.07595581653278789
17513431,0.034818595014773523,-0.04123288749985563,0.014050830391004486,0.19463908016765327,-0.23008103442865782,0.0769089996163774
17514627,0.03481865573248831,-0.04123288409641313,0.014050521809088841,0.1970250547457148,-0.2329065488307662,0.07787182219351971
17515812,0.034818786141237554,-0.041232945734342864,0.01405019897858164,0.1993890935957037,-0.2357060802452179,0.07882576746032793
17516999,0.03481895604768186,-0.04123305165147335,0.01404990463741776,0.20175713394003253,-0.23851034381063818,0.0797813027431726
17518174,0.03481913648872098,-0.04123317981747036,0.014049669360182392,0.2041012466813676,-0.24128626624648614,0.08072716218369655
17519367,0.03481930305878883,-0.041233309910676925,0.014049510244075004,0.20648128062061827,-0.24410472234393757,0.08168750050966164
17520578,0.03481943800129372,-0.04123342548172213,0.014049431524662481,0.20889723390687556,-0.24696571136370607,0.08266232297120722
17521778,0.03481953105599328,-0.041233515201274475,0.014049426654977618,0.2112912485158353,-0.24980071903833193,0.08362829039349781
17522935,0.03481957920936776,-0.04123357322317068,0.014049481295218873,0.21359948079345312,-0.2525341427842925,0.0845596476053244
17524136,0.034819585600751254,-0.041233598797061156,0.014049576659710766,0.21599549416793348,-0.25537151871772645,0.08552643032262727
17525328,0.03481955789008015,-0.04123359533023619,0.014049692735625424,0.21837355051217622,-0.25818763181372134,0.08648597613449796
17526525,0.034819506397710226,-0.04123356912590912,0.01404981100202228,0.22076157839347335,-0.2610155556674765,0.08744955499792466
17527707,0.03481948196295431,-0.041233607360450585,0.01404999575621979,0.2231196794585408,-0.26380804446833517,0.08840107145047224
17528906,0.03481976464126399,-0.041234257299018716,0.014050775762365693,0.22551171510208315,-0.26664074061692894,0.0893663265804041
17530104,0.03482119285931154,-0.04123718585150051,0.014053805209497908,0.2279018537534458,-0.26947127523345743,0.09033098460247872
17531291,0.034825323092349036,-0.0412454995630764,0.014062184106641895,0.23027032712105727,-0.2722763853824696,0.09128735501313395
17532480,0.03483414138642514,-0.04126316773303806,0.014079880957769804,0.2326433919202138,-0.27508742555603694,0.09224654242374195
17533672,0.03484945291393106,-0.04129380114320912,0.014110510424408147,0.2350234899920211,-0.27790765050250255,0.09321024187510192
17534876,0.034872289391453024,-0.04133946619120465,0.014156146030367002,0.23742912413694436,-0.2807594171383586,0.09418679113084184
17536078,0.03490255914627964,-0.04139998415075024,0.014216617881980406,0.239832846875556,-0.2836106144635819,0.09516588287955426
17537261,0.03493899853117505,-0.04147283309968191,0.014289413157775266,0.24220104389139988,-0.2864216807137385,0.09613443226622913
17538454,0.03497938348978279,-0.04155357023733013,0.014370097246389359,0.24459201994681332,-0.28926202784230975,0.09711668395285807
17539648,0.035020910847849765,-0.04163659382440595,0.014453074858994122,0.24698784110803845,-0.29211043555503985,0.09810543558020403
17540834,0.03506064614978953,-0.041716038429456086,0.014532484831033185,0.2493703099909805,-0.2949451569418957,0.09909295853553815
17542036,0.03509594605472641,-0.04178661951945233,0.014603044628098659,0.25178735119449996,-0.2978229816620732,0.10009866331146611
17543284,0.03512478790257893,-0.041844292595202136,0.014660709694069976,0.25429895381918116,-0.3008150633623679,0.10114697930555676
17544542,0.03514596867325896,-0.041886651276103574,0.014703071959453022,0.2568322081344021,-0.3038341732091276,0.10220674865875225
17545716,0.03515916402403947,-0.04191304565094844,0.014729478731565743,0.2591971979216905,-0.306653464499753,0.10319753065653856
17546897,0.035164861367720554,-0.04192444876383907,0.014740899745551345,0.26157667452920297,-0.3094903374813705,0.10419499303102196
17547971,0.03516419692875615,-0.0419231310580724,0.014739602124068496,0.26374052684866245,-0.3120701053220184,0.10510200428194558
17549273,0.03515873486132605,-0.04191221890462104,0.014728709318565729,0.2663633369996491,-0.3151967193377671,0.10620075281382631
17550506,0.035150227515216514,-0.04189521535879472,0.014711722145601867,0.26884654929192797,-0.3181564359917089,0.10724007266621517
17551680,0.035140391273233554,-0.041875551978395285,0.014692070743943235,0.2712102763255313,-0.3209732052612585,0.10822833840654354
17552901,0.03513072394536261,-0.04185622367258259,0.014672749432984043,0.27366795666798094,-0.32390138910083066,0.10925481676512272
17554101,0.0351223794443911,-0.04183953804013812,0.014656065956188631,0.2760827935983257,-0.326778063836603,0.11026249363338869
17555301,0.03511610514120257,-0.041826990010003694,0.014643515955270574,0.27849719913936,-0.3296538758333739,0.11126930762715208
17556479,0.03511223828449929,-0.041819254573787094,0.014635775499824637,0.28086707958752627,-0.33247644251135916,0.1122571409267483
17557675,0.03511075108018259,-0.041816276821345776,0.014632790915967232,0.2832730702190312,-0.33534193433882853,0.11325986393247911
17558854,0.03511132988969315,-0.04181743021653513,0.014633936877452278,0.28564490108662516,-0.3381667738451256,0.11424841159813023
17560070,0.03511347252229076,-0.04182171107754864,0.01463821074197677,0.2880913152825894,-0.34108056220982463,0.11526828015541844
17561252,0.03511658842228499,-0.04182793887335239,0.014644432753751851,0.2904695374700484,-0.34391330128709663,0.11626005402817943
17562461,0.035120089122939055,-0.04183493708398885,0.014651426861555149,0.29290232702543545,-0.3468112323724061,0.11727496712010059
17563643,0.03512345998247307,-0.04184167665528906,0.014658164177580153,0.2952810145797662,-0.34964490182188324,0.11826767093447269
17564836,0.035126308263285805,-0.041847372166253276,0.014663859185447735,0.2976820335113068,-0.3525053314478288,0.11927000238501415
17566044,0.03512838647717373,-0.041851528548246385,0.014668016524127268,0.30011338512109254,-0.35540201391782766,0.1202852242373322
17567263,0.03512959315208526,-0.0418539426595231,0.014670432638416914,0.30256696080049283,-0.35832524207341265,0.12130985940950935
17568450,0.03512995550304497,-0.04185466867280812,0.014671161242058937,0.3049561522458586,-0.36117178186857474,0.12230764641012398
17569646,0.03512959980310265,-0.04185395886104123,0.014670454169359436,0.3073634345002815,-0.36403985588616233,0.12331295031862748
17570699,0.035128715589183165,-0.04185219204600706,0.01466868987385362,0.3094828361818348,-0.36656490141405274,0.12419794840248576
17571673,0.03512751935524765,-0.041849801011511055,0.014666300872705054,0.3114431656619553,-0.3689003751442177,0.12501641729789284
17572890,0.03512622230515272,-0.041847208024598286,0.014663709280286819,0.313892480740845,-0.37181833759214794,0.1260389025495276
17574084,0.035125005312974564,-0.04184477476073225,0.014661276729150963,0.3162954231252558,-0.37468098720437576,0.12704189750847894
17575278,0.03512400271411541,-0.041842769881229,0.014659271930554045,0.3186982969207149,-0.37754349966046963,0.1280447553168312
17576440,0.03512329513412872,-0.04184135467929253,0.014657856295541352,0.32103672497944485,-0.38032920064392484,0.12902064161427088
17577621,0.035122910406608074,-0.04184058490015851,0.014657085726804589,0.3234133629199828,-0.3831603988668747,0.13001243260290965
17578802,0.03512283082646478,-0.041840425230740046,0.014656925080873455,0.32578999547562565,-0.3859915862855833,0.13100421272123014
17579990,0.035123004558901785,-0.041840772101736055,0.014657270946822953,0.3281807265865777,-0.38883957827334514,0.13200189484137617
17581217,0.03512335895331846,-0.041841480302410604,0.014657978243773781,0.33064996620921494,-0.39178111473544214,0.13303237887666974
17582420,0.03512381373226771,-0.0418423893493264,0.014658886579363706,0.33307093909279184,-0.39466517768973697,0.13404276935370002
17583605,0.03512429245215498,-0.04184334640276632,0.014659843162771115,0.3354557204461235,-0.3975061525619921,0.13503810671643737
17584818,0.035124731170400006,-0.04184422360004846,0.01466072014052703,0.33789688155432185,-0.4004143169194542,0.1360570235488997
17586027,0.0351250838143516,-0.04184492879563708,0.014661425343517033,0.3403300170949671,-0.4033129401365989,0.13707262924163977
17587252,0.03512532425662748,-0.04184540971644598,0.014661906451830027,0.3427953698165353,-0.4062499577133153,0.138101709306789
17588437,0.03512544550724482,-0.04184565235202114,0.014662149395424998,0.34518022945711735,-0.40909108914914516,0.13909720325234254
17589661,0.03512545670582719,-0.041845674945180204,0.014662172354709145,0.3476435789345185,-0.412025727760993,0.14012546189991046
17590842,0.03512537873050346,-0.04184551921550988,0.014662016992311656,0.35002038389744017,-0.4148572598708827,0.14111758656911735
17592066,0.03512523924564474,-0.04184524045941603,0.014661738559062595,0.35248371812435136,-0.41779186801222906,0.14214581479458177
17593250,0.03512506791349608,-0.041844897976502475,0.014661396323695772,0.35486653960987097,-0.4206305506933086,0.14314041757382356
17594452,0.03512489232780215,-0.04184454693838754,0.014661045442501297,0.35728557432952485,-0.42351236484742705,0.14415011683840356
17595635,0.03512473502544934,-0.041844232412123726,0.014660730981493356,0.3596663607334441,-0.42634860487990106,0.1451438344840162
17596833,0.035124611727004915,-0.04184398584025439,0.014660484393703967,0.3620773261602178,-0.42922079045630984,0.1461501351739054
17598015,0.03512453077477318,-0.0418438239151074,0.014660322389849684,0.36445608623247017,-0.4320546053259765,0.14714298515020652
17599230,0.03512449359548088,-0.04184374950193636,0.01466024785760417,0.3669012557997449,-0.43496753167421476,0.1481635490997671
17600521,0.03512449592317421,-0.041843754082432065,0.014660252301526129,0.36949937441747865,-0.4380626660999223,0.14924795112303255
17601732,0.03512452947754534,-0.041843821109332956,0.014660319194755807,0.371936496533475,-0.44096600753567144,0.15026516014101943
17602938,0.03512458379833898,-0.04184392967363889,0.014660427644208905,0.3743635599664859,-0.4438573691013328,0.15127817678064276
17604152,0.035124647977781864,-0.04184405796842202,0.014660555853330086,0.3768067277869016,-0.4467679194353525,0.1522979221831567
17605359,0.03512475176864601,-0.04184418616273649,0.014660683995843526,0.3792358153264768,-0.44966169621934393,0.15331179653166505
17606544,0.03512515685608108,-0.041844298450153104,0.01466079626486478,0.38162065536894413,-0.45250273573133126,0.15430719860574438
17607598,0.03512668773113201,-0.041844384185987536,0.014660882011222141,0.3837419473157964,-0.45502970769846207,0.1551925656287385
17608790,0.03513089219137761,-0.041844438157187074,0.014660936014713154,0.3861412667246857,-0.4578875392638456,0.15619385725950496
17609959,0.03513975287072616,-0.04184446012702935,0.014660958030224658,0.3884948840183247,-0.46069022957758454,0.15717583014042408
17611163,0.03515507615092856,-0.04184445385755944,0.01466095181145688,0.39092002595858344,-0.4635768323424745,0.15818720297800323
17612380,0.035177898495127,-0.04184442583611577,0.014660923838470341,0.39337294436464637,-0.46649460079128513,0.15920949400366677
17613543,0.03520813521272787,-0.04184438392303504,0.014660881966073402,0.3957190381578727,-0.46928290096140385,0.1601864217499393
17614728,0.03524453055987827,-0.04184433610343693,0.014660834175935555,0.39811198313749374,-0.47212394302987964,0.16118182639800968
17615925,0.03528486814273563,-0.04184428947613641,0.014660787565505276,0.4005319269457232,-0.47499375194677607,0.16218730789646374
17617130,0.035326351311412214,-0.04184424955653806,0.014660747650651479,0.40297090820279036,-0.47788273811703663,0.16319950664915459
17618326,0.035366050421307894,-0.041844219916053686,0.014660718004653413,0.405394393413707,-0.48075014476609235,0.16420414337964712
17619517,0.03540132498183527,-0.04184420213447692,0.014660700210060822,0.40781015410786753,-0.48360556271575517,0.1652045789095181
17620707,0.03543015326728808,-0.04184419600787855,0.0146606940660692,0.41022585202503103,-0.486458582751515,0.16620417402423282
17621889,0.035451331548303135,-0.04184419993465995,0.014660697974112867,0.4126267442258701,-0.48929242308658366,0.16719704943645664
17623094,0.035464533549332856,-0.041844211396058116,0.014660709418014159,0.41507526578007625,-0.49218140662219073,0.16820924554951214
17624287,0.035470244012981135,-0.04184422745267013,0.014660725460279259,0.4174997940494061,-0.4950416212948087,0.16921136279782661
17625481,0.03546959623497634,-0.04184424519245499,0.01466074319000115,0.41992631029877103,-0.497904234678656,0.1702143212567454
17626662,0.03546415159612932,-0.04184426208471941,0.014660760076862192,0.4223260387733365,-0.5007356817231369,0.17120636087511482
17627867,0.03545566013918378,-0.04184427621540517,0.01466077420652858,0.4247739476947562,-0.5036246697339634,0.17221856146126097
17629067,0.035445836596712445,-0.0418442863986442,0.014660784392371173,0.4272110239007186,-0.5065016709428182,0.17322656274530193
17630270,0.03543617785613188,-0.04184429217584167,0.01466079017474077,0.4296535270508958,-0.509385865052899,0.17423708443111335
17631464,0.03542783760200748,-0.04184429372515524,0.014660791730636842,0.43207718654370847,-0.5122484817569246,0.1752400462107534
17632661,0.0354215635590464,-0.04184429171067441,0.014660789723050884,0.4345065053402467,-0.5151182908270725,0.17624552785717854
17633849,0.03541769375037979,-0.041844287102120035,0.014660785120789305,0.4369172951741633,-0.5179665220717224,0.17724344917796062
17635030,0.0354162013962367,-0.04184428099328818,0.014660779016993017,0.4393137790353695,-0.5207979703956765,0.1782354900779389
17636236,0.0354167739385197,-0.04184427444190724,0.014660772469023052,0.4417610324301687,-0.5236893557843805,0.1792485305445121
17637433,0.03541891018631054,-0.04184426834634752,0.014660766375157272,0.444190169250317,-0.5265591632521316,0.1802540105896675
17638625,0.0354220203959772,-0.04184426336694882,0.014660761395873738,0.44660937171677184,-0.5294169828799415,0.18125529029456633
17639812,0.03542551666280833,-0.04184425989265208,0.014660757920418592,0.44901866430329695,-0.5322628147730255,0.18225236976433695
17640998,0.03542888463821433,-0.04184425804788893,0.014660756073624152,0.45142615602057085,-0.5351062490412639,0.18324860910905943
17642201,0.035431731627141326,-0.04184425773073374,0.01466075575399222,0.45386835270631054,-0.5379904407771529,0.18425912842235803
17643388,0.035433809978746435,-0.0418442586712831,0.014660756692015338,0.45627820932200136,-0.5408362725871714,0.18525620780858484
17644594,0.03543501791474404,-0.041844260498962775,0.01466075851744121,0.45872672335202463,-0.5437276570124359,0.18626924731112174
17645832,0.035435382267189224,-0.04184426280864625,0.014660760825366465,0.46124023208951087,-0.5466957615862812,0.1873091669641651
17647070,0.035435028912233234,-0.041844265217662234,0.01466076323323661,0.4637537157627615,-0.5496638663310033,0.18834908678800394
17648278,0.03543414702779258,-0.041844267408496304,0.014660765423554808,0.46620623006977047,-0.5525600462335463,0.18936380676771078
17649500,0.035432952823367704,-0.04184426915480904,0.014660767169917925,0.46868708394308284,-0.5554897912572286,0.1903902868694548
17650548,0.035431657312939645,-0.04184427033093382,0.014660768346538622,0.470814612420677,-0.5580023713481604,0.1912706070273629
17651829,0.035430441279600065,-0.041844270907023993,0.014660768923418922,0.4734150613174858,-0.5610735690015917,0.19234664726271905
17653023,0.03542943905788352,-0.04184427093335182,0.014660768950674058,0.4758388303677538,-0.5639361841464036,0.19334960748395538
17654214,0.03542873134446765,-0.041844270517892544,0.014660768536137049,0.47825646125218696,-0.566791606762501,0.19435004767634814
17655409,0.03542834609271595,-0.04184426980131949,0.014660767820368369,0.48068218542614544,-0.5696566193299256,0.19535384782037948
17656592,0.03542826574132684,-0.041844268933021116,0.014660766952681023,0.483083545417339,-0.5724928618378192,0.19634756790415184
17657796,0.035428438600696506,-0.041844268050894244,0.014660766070935534,0.48552754502523515,-0.5753794517850002,0.19735892792858484
17658978,0.035428792148613615,-0.041844267266644246,0.014660765286836665,0.4879269107765288,-0.578213296680034,0.1983518078994694
17660178,0.03542924620676511,-0.04184426665729276,0.014660764677434053,0.4903628463113018,-0.5810902965315734,0.19935980782801113
17661356,0.035429724395114874,-0.04184426626268569,0.014660764282620906,0.49275415530298655,-0.5839145513592009,0.20034932773121525
17662510,0.035430162798416036,-0.0418442660880951,0.014660764107726099,0.49509677391335205,-0.5866812661787963,0.20131868762482752
17663681,0.0354305153390801,-0.041844266110563154,0.0146607641298492,0.49747392615638325,-0.5894887384972417,0.20230232751835686
17664872,0.035430755859655196,-0.041844266287447855,0.014660764306399017,0.4998916951922618,-0.5923441608246567,0.20330276742211537
17666062,0.0354308773237537,-0.04184426656567002,0.01466076458433567,0.5023074424770271,-0.5951971856711863,0.20430236734490495
17667275,0.03543088881729322,-0.041844266890378116,0.014660764908832842,0.5047698814744981,-0.5981053530373168,0.20532128728875473
17668464,0.03543081116550321,-0.04184426721207878,0.01466076523040808,0.5071835942125185,-0.6009559804280118,0.2063200472556227
17669658,0.03543067198702963,-0.04184426749166328,0.014660765509950761,0.5096074476089005,-0.6038185953373738,0.20732300724147515
17670802,0.03543050090976054,-0.04184426770313487,0.014660765721452307,0.5119297883932798,-0.6065613352643926,0.20828396724178322
17671989,0.03543032550639353,-0.04184426783416558,0.014660765852566461,0.5143394080296914,-0.6094071676975796,0.20928104725101995
17673018,0.03543016830598345,-0.04184426788485284,0.014660765903369455,0.5164282771152922,-0.6118741951426484,0.2101454072620224
17673972,0.035430045032774755,-0.041844267865193595,0.014660765883837343,0.5183648895294051,-0.6141614100906463,0.2109467672711553
17675236,0.03542996404147523,-0.041844267791847266,0.014660765810611466,0.5209307936129614,-0.6171918500164344,0.21200852727795275
17676439,0.03542992677664462,-0.04184426768473106,0.014660765703595417,0.5233728658960908,-0.6200760424384207,0.21301904727704588
17677625,0.035429928992291505,-0.04184426756390185,0.014660765582837722,0.5257804285801427,-0.6229194773532989,0.214015287267946
17678812,0.03542996242730443,-0.04184426744705166,0.01466076546602732,0.5281900235235126,-0.6257653097601582,0.21501236725089418
17679997,0.03543001663764341,-0.041844267347801826,0.014660765366787058,0.5305955621728897,-0.6286063471604358,0.2160077672271331
17681202,0.035430080727370646,-0.041844267274844936,0.014660765293814451,0.5330417050555405,-0.6314953345539934,0.21701996719793287
17682386,0.03543014478526973,-0.04184438624447551,0.014660765250804349,0.5354452224078008,-0.6343339825200919,0.2180145271663238
17683574,0.035430200909248984,-0.04184543302389328,0.014660765237004887,0.5378568635713287,-0.6371822917646416,0.21901244713366863
17684753,0.03543024377545095,-0.041849897047566045,0.014660765248209952,0.5402502376217277,-0.6400093244613491,0.22000280710201778
17685941,0.03543027077391655,-0.04186242951659645,0.014660765277977328,0.5426618835407608,-0.6428587906127293,0.22100072707215151
17687135,0.03543028178174618,-0.041888978673561936,0.014660765318876452,0.5450857102427464,-0.645724464265943,0.22200368704493237
17688334,0.03543027867510228,-0.041934958005766035,0.01466076536360577,0.5475196867593782,-0.6486052968991817,0.22301084702067203
17689522,0.035430264693137405,-0.042003467158064536,0.014660765405868081,0.5499313322645086,-0.6514643631141529,0.22400876699951094
17690682,0.03543024376233483,-0.04209424025733456,0.014660765440944787,0.5522861362487623,-0.6542620769920766,0.22498316698117993
17691865,0.035430219872687636,-0.04220349808701339,0.014660765465959076,0.5546876286927522,-0.6571226683779076,0.22597688696418092
17693063,0.035430196572245505,-0.04232458081373251,0.014660765479858479,0.5571195695683807,-0.6600278421585517,0.22698320694792043
17694250,0.03543017661848489,-0.04244909021450659,0.014660765483175707,0.5595291790789121,-0.6629148086164303,0.22798028693203487
17695446,0.035430161797816724,-0.042568232000943326,0.014660765477642175,0.5619570575701348,-0.6658318287382756,0.22898492691564967
17696609,0.03543015290149835,-0.042674082335990474,0.014660765465731723,0.5643179455101816,-0.6686754158551503,0.2299618468989229
17697763,0.03543014982928055,-0.04276057635377563,0.014660765450204984,0.5666605632630365,-0.6715027164951798,0.23093120688129898
17698937,0.035430151782150705,-0.04282410527405851,0.014660765433710532,0.5690437811083064,-0.6743832904346985,0.2319173668622601
17700117,0.03543015750235027,-0.042863694053197995,0.014660765418480562,0.5714391793293012,-0.6772812627757326,0.23290856684209424
17701294,0.03543016552146975,-0.04288080133189347,0.014660765406139545,0.5738284880956053,-0.6801730210562958,0.2338972468211474
17702468,0.035430174384357145,-0.042878831367851214,0.014660765397626611,0.5762117074612182,-0.6830572761599295,0.23488340679968134
17703660,0.03543018282608929,-0.04286247210064388,0.014660765393218263,0.5786314673936459,-0.6859846359509596,0.23588468677758506
17704819,0.0354301898896533,-0.04283697652946984,0.014660765392628304,0.5809842377970059,-0.6888292600091953,0.23685824675606135
17706026,0.035430194981804476,-0.04280749062977064,0.014660765395157024,0.583434448569224,-0.6917896550825657,0.2378721267338211
17707204,0.03543019787271232,-0.042778505749978143,0.014660765399861254,0.5858257895180086,-0.6946769658702519,0.2388616467124327
17708369,0.03543019865081099,-0.042753482674549384,0.014660765405720061,0.5881907405082604,-0.6975307430162508,0.23984024669167142
17709517,0.035430197647491134,-0.04273466357948279,0.014660765411776529,0.5905211814180683,-0.700341639225845,0.24080456667161146
17710712,0.03543019534703231,-0.04272306107785838,0.01466076541724294,0.5929470322076156,-0.7032668212755759,0.2418083666511045
17711873,0.03543019229588181,-0.04271859318835565,0.014660765421563804,0.595303862771735,-0.7061084791825301,0.24278360663146845
17713068,0.03543018902261257,-0.04272032064927227,0.014660765424437443,0.597729713128259,-0.7090334735993454,0.2437874066114541
17714250,0.03543018597628165,-0.04272673853997715,0.0146607654258019,0.6001291732745959,-0.7119270826359524,0.24478028659174988
17715456,0.035430183487076806,-0.042736076639179374,0.014660765425794073,0.6025773532519033,-0.7148800904061458,0.24579332657164504
17716622,0.03543018174960059,-0.042746570649781754,0.014660765424692572,0.6049443331138881,-0.7177358553754598,0.24677276655213343
17717825,0.03543018082627567,-0.04275667734002685,0.014660765422854653,0.6073864229078514,-0.7206829372960359,0.24778328653187598
17718990,0.03543018066638024,-0.04276521877838692,0.014660765420656197,0.60975137269765,-0.7235374978220738,0.24876188651211167
17720162,0.03543018113520106,-0.04277145241791082,0.014660765418441551,0.6121305325176672,-0.7264096288069015,0.2497463664920799
17721344,0.035430182047658014,-0.042775073480217876,0.0146607654164874,0.6145299923979436,-0.7293065112602176,0.2507392464717449
17722533,0.03543018320134423,-0.04277616306961636,0.014660765414982298,0.6169436623561054,-0.7322206237597163,0.2517380064511869
17723704,0.03543018440502075,-0.042775099388835294,0.01466076541402122,0.6193207923956594,-0.735090548808362,0.25272164643087563
17724873,0.035430185499967494,-0.042772450447983626,0.014660765413612761,0.621693862508484,-0.7379553947688912,0.2537036064105717
17726053,0.03543018637299979,-0.04276886521500471,0.014660765413695563,0.6240892626813951,-0.7408469558251238,0.25469480639008235
17727253,0.03543018696122966,-0.04276497692015922,0.014660765414160025,0.6265252628976805,-0.7437872590513233,0.2557028063692776
17728416,0.03543018724965415,-0.042761327957240455,0.014660765414871588,0.6288861531265163,-0.7466366597794348,0.2566797263491618
17729600,0.03543018726331972,-0.04275832125416772,0.01466076541569241,0.6312896733604112,-0.749537307454198,0.25767428632873846
17730774,0.03543018705612735,-0.04275619873874999,0.014660765416499057,0.6336728935783938,-0.7524133136439719,0.25866044630854185
17731962,0.03543018669834017,-0.04275504405985077,0.014660765417194813,0.6360845337746223,-0.755323537734072,0.25965836628815175
17733140,0.035430186264598464,-0.04275480430932731,0.014660765417716229,0.6384758739399238,-0.7582092488065724,0.2606478862679685
17734311,0.035430185823818926,-0.042755324211436005,0.014660765418034225,0.6408530040746696,-0.7610778470721651,0.26163152624792646
17735472,0.035430185431844195,-0.04275638603196315,0.014660765418150715,0.6432098341821905,-0.7639220189741938,0.26260676622806334
17736655,0.03543018512719354,-0.04275774912047019,0.014660765418092095,0.6456113242710992,-0.766820177997869,0.2636004862078199
17737842,0.03543018492981211,-0.04275918427715268,0.01466076541790104,0.6480209343468847,-0.769728233980944,0.26459756618749497
17739032,0.035430184842366354,-0.042760499748457456,0.014660765417627938,0.6504366344168995,-0.7726437294178377,0.26559716616710005
17740217,0.035430184853410575,-0.04276155733615759,0.014660765417323099,0.65284218448737,-0.7755470466793484,0.2665925661467701
17741384,0.03543018494165517,-0.04276227863195485,0.014660765417030555,0.6552111945626704,-0.7784063111480134,0.2675728461267295
17742571,0.0354301850805866,-0.04276264260638181,0.014660765416783926,0.6576208046487101,-0.7813146023323716,0.2685699261063286
17743769,0.03543018524279767,-0.04276267659952172,0.014660765416604361,0.6600527447466813,-0.7842498471583944,0.2695762460857264
17744937,0.03543018540355194,-0.04276244316133061,0.014660765416500438,0.662423784852957,-0.7871115727356952,0.2705573660656331
17746098,0.03543018554329739,-0.04276202520641349,0.014660765416469664,0.6647806149678919,-0.7899561197578641,0.27153260604565815
17747277,0.03543018564903142,-0.04276151165741414,0.014660765416501034,0.6671739850917511,-0.7928447335931322,0.2725229660253757
17748553,0.03543018571458114,-0.0427609852508881,0.014660765416578105,0.6697642652305928,-0.7959709641950536,0.2735948060034301
17749735,0.035430185739983695,-0.042760513573817424,0.014660765416682112,0.6721637253609268,-0.798866860598927,0.2745876859831083
17750916,0.03543018573022528,-0.042760143783902346,0.01466076541679475,0.6745611554904902,-0.8017602819835216,0.2755797259628113
17751979,0.03543018569362428,-0.04275990092024322,0.01466076541690036,0.676719045604879,-0.8043645914355221,0.2764726459445487
17752949,0.035430185640130125,-0.04275978928661679,0.014660765416987333,0.6786881457062872,-0.8067410482307442,0.2772874459278887
17754095,0.035430185579764954,-0.04275979611494575,0.014660765417048714,0.6810145258221315,-0.8095486976351035,0.2782500859082098
17755311,0.03543018552137157,-0.042759896595349275,0.014660765417082111,0.6834830059409834,-0.812527850949616,0.2792715258873313
17756496,0.03543018547176031,-0.04276005937527548,0.014660765417089064,0.6858885560534371,-0.8154310665063256,0.2802669258669855
17757674,0.03543018543527945,-0.04276025175387892,0.014660765417074076,0.6882798961627642,-0.8183171452509814,0.28125644584675885
17758880,0.03543018541377644,-0.042760443991990124,0.014660765417043448,0.6907280762732041,-0.8212718367738224,0.2822694858260493
17760053,0.03543018540687578,-0.04276053304274956,0.014660805087873052,0.6931092663801582,-0.8241456845135444,0.2832548084721016
17761234,0.03543018541247509,-0.042759963762279404,0.01466115401888934,0.6955066964882207,-0.827039093716739,0.28424687474707655
17762401,0.03543018542735412,-0.04275706870459982,0.014662642022991671,0.6978757065959971,-0.8298980098279113,0.2852272802047447
17763605,0.03543018544779845,-0.04274874670714,0.014666819502701097,0.7003198267086008,-0.832846994437926,0.28623905781983217
17764803,0.03543018547015806,-0.042731037909341116,0.01467566920802409,0.7027517668221782,-0.8357800675733756,0.2872464008005977
17766011,0.03543018549128494,-0.0427003430417051,0.014690995637163851,0.7052040069381659,-0.8387354992969567,0.2882632131131981
17767260,0.03543018550882016,-0.04265460745665532,0.014713832007170868,0.707739477059345,-0.8417879665980397,0.28931617066581783
17768439,0.03543018552132549,-0.04259402037408365,0.014744089695241654,0.7101328471745775,-0.8446652661083562,0.29031215934421917
17769634,0.035430185528274656,-0.04252111191550116,0.014780508963477861,0.7125586972918495,-0.8475766210106455,0.29132415797950095
17770850,0.0354301855299338,-0.042440330240741106,0.014820869867770686,0.7150271774112981,-0.8505335096042315,0.2923567527027382
17772038,0.03543018552716832,-0.0423572795221107,0.014862373000277412,0.7174388175278079,-0.8534166589019796,0.2933683955835387
17773254,0.03543018552121475,-0.04227782498974779,0.014902086930953917,0.719907297646649,-0.8563622254836885,0.2944066488350289
17774390,0.03543018551345304,-0.04220724889844381,0.014937370379956013,0.7222133777571663,-0.859109411133264,0.29537889248087623
17775467,0.03543018550520719,-0.042149592092941265,0.014966201724404733,0.7243996878614349,-0.861710359385992,0.29630242018997555
17776442,0.03543018549759313,-0.04210725665187527,0.014987378036670013,0.7263789379554032,-0.864062613276693,0.2971396658597571
17777703,0.03543018549142304,-0.04208088819816426,0.015000574301461029,0.7289387680764897,-0.8671029565217999,0.29822345702251496
17778862,0.03543018548716654,-0.042069509938895897,0.015006276731803585,0.731291538187499,-0.8698966163406259,0.2992199609607998
17780073,0.03543018548496201,-0.042070848574377165,0.015005620079954585,0.733749868303336,-0.8728157101199431,0.3002611287459647
17781262,0.03543018548466651,-0.04208177594113728,0.01500016699234739,0.7361635384170485,-0.8756825177172396,0.3012830103498811
17782460,0.035430185485930334,-0.042098788260837725,0.014991668468811437,0.7385954785317085,-0.8785721930194127,0.30231204362856556
17783631,0.03543018548828201,-0.04211845419464287,0.014981839834728169,0.7409726086439421,-0.8813980615370903,0.3033172255692464
17784821,0.03543018549121115,-0.042137779776471165,0.014972178206556667,0.7433883087581964,-0.8842710986947901,0.304338058288657
17786031,0.035430185494239326,-0.04215445881161188,0.014963837179456683,0.7458446088745809,-0.8871935785136419,0.3053754695946586
17787233,0.03543018549697264,-0.0421669979694483,0.0149575641457468,0.7482846689903841,-0.8900975997177419,0.3064055899620703
17788416,0.035430185499133286,-0.042174723814243156,0.01495369664338279,0.7506861591045033,-0.8929562407572615,0.3074191650860137
17789615,0.03543018550057036,-0.0421776925860103,0.014952207345442652,0.7531201292202647,-0.8958537486832211,0.30844634643799645
17790816,0.03543018550125283,-0.04217653180627999,0.01495278316479241,0.7555581593362661,-0.898756009940887,0.309475280810144
17792036,0.03543018550124911,-0.04217224574578869,0.014954922461241912,0.7580347594541025,-0.9017038858073502,0.310520642616913
17793221,0.035430185500698506,-0.0421660151355439,0.01495803516098147,0.7604403095685209,-0.9045667684341396,0.311536225874084
17794432,0.03543018549977966,-0.042159016360527754,0.014961533164885462,0.7628986396853861,-0.9074919797519618,0.31257433468031487
17795630,0.03543018549868051,-0.042152278089420445,0.01496490206224874,0.7653305798009212,-0.9103853266143618,0.31360153070364905
17796818,0.035430185497573256,-0.04214658520550131,0.014967749209103254,0.7677422199154166,-0.9132541345007203,0.31462034626753743
17798015,0.035430185496596274,-0.04214243218464535,0.014969827089683748,0.7701721300307123,-0.9161443909533283,0.315647022638536
17799230,0.03543018549584385,-0.04214002160512069,0.014971034111104457,0.7726385801476894,-0.919077942098003,0.3166892217779939
17800425,0.035430185495363455,-0.042139298823654955,0.014971397308072055,0.7750644302627081,-0.921963154847215,0.3177142902435973
17801629,0.035430185495159354,-0.04214001122898585,0.01497104274813137,0.7775085503785789,-0.924870146376849,0.3187470544311083
17802834,0.03543018549520081,-0.0421417798082515,0.01497015976798267,0.7799547004945488,-0.9277796744564888,0.31978061543398534
17804037,0.03543018549543298,-0.04214417172761624,0.014968964690294326,0.7823967906103423,-0.9306845383112824,0.3208123786100077
17805220,0.0354301854957886,-0.04214676478869321,0.01496766859185655,0.7847982807242347,-0.9335412842626868,0.3218269007652935
17806419,0.035430185496198786,-0.04214919747087685,0.014966452270645417,0.7872322508396958,-0.9364368346414955,0.3228550607100145
17807607,0.03543018549660188,-0.0421512013173506,0.01496545003601343,0.7896438909541251,-0.9393059567345214,0.3238737197752006
17808800,0.03543018549694959,-0.04215261525376075,0.014964742530604796,0.7920656810690597,-0.9421872509052502,0.32489661776528533
17809963,0.03543018549721021,-0.04215338373814985,0.014964357637406268,0.7944265711811215,-0.9449961412754454,0.32589376761035993
17811162,0.035430185497369225,-0.042153542249364476,0.01496427772039138,0.796860541296663,-0.9478919901302809,0.3269217781686112
17812354,0.03543018549742758,-0.042153194472072594,0.014964451020988572,0.7992803014115338,-0.9507709086926837,0.3279437988330008
17813550,0.035430185497398466,-0.042152485677936155,0.01496480496112591,0.8017081815267882,-0.95365943948498,0.3289692733509495
17814750,0.03543018549730317,-0.0421515763603698,0.01496525932398168,0.8041441816424215,-0.9565575683953071,0.32999820878924907
17815944,0.03543018549716686,-0.042150619327195174,0.01496573770960678,0.8065680017574673,-0.9594411411893323,0.331022032277273
17817129,0.03543018549701466,-0.042149742379735164,0.014966176200133293,0.8089735518716357,-0.9623029189692506,0.3320381682743574
17818351,0.03543018549686857,-0.04214903758623935,0.014966528729468753,0.8114542119893585,-0.9652540024895394,0.3330860564070127
17819540,0.03543018549674535,-0.042148557139344636,0.014966769161498996,0.8138678821038938,-0.9681253595347168,0.33410566279432835
17820703,0.03543018549665552,-0.04214831497646489,0.014966890486390317,0.8162287722159186,-0.9709339121480198,0.33510298141577366
17821884,0.035430185496603366,-0.042148292796669914,0.014966901817496759,0.8186262023296736,-0.9737859318306091,0.3361157365177847
17823095,0.035430185496587684,-0.04214844884134265,0.014966824004800833,0.8210845324463173,-0.9767104099191155,0.337154212429943
17824266,0.03543018549660303,-0.04214872779508709,0.0149666846865051,0.8234616625591091,-0.9795383095943,0.3381583775608414
17825477,0.03543018549664124,-0.042149070357639554,0.014966513503494556,0.8259199926757564,-0.982462830806832,0.3391968319288079
17826676,0.03543018549669295,-0.04214942137142515,0.014966338034626592,0.8283539627912515,-0.98535839656708,0.340224984025784
17827879,0.03543018549674903,-0.042149735793429496,0.014966180808901514,0.8307960529071357,-0.9882636439352517,0.34125655531770704
17829071,0.03543018549680164,-0.04214998221015227,0.014966057545558856,0.8332158130219638,-0.991142343111186,0.3422786857022131
17830274,0.035430185496844964,-0.04215014395871526,0.014965976590970615,0.8356579031378546,-0.9940476186128939,0.343310242918043
17831468,0.03543018549687552,-0.04215021820000313,0.014965939379732892,0.8380817232528804,-0.9969311639653422,0.34433408020255435
17832662,0.03543018549689212,-0.042150213472594775,0.014965941655822209,0.8405055433679075,-0.9998147089943831,0.3453579176427756
17833847,0.03543018549689555,-0.04215014633683774,0.014965975149279071,0.8429110934820677,-1.0026765142011702,0.34637403998941196
17835054,0.03543018549688808,-0.04215003770747218,0.014966029409252322,0.8453613035983468,-1.0055914424563854,0.3474090308071231
17836241,0.03543018549687287,-0.042149909390597526,0.014966093535458618,0.8477709137126982,-1.0084580615994192,0.3484268761796389
17837459,0.03543014582598447,-0.04214978121119402,0.01496611794397041,0.8502434510615531,-1.011399537166655,0.34947130556939027
17838644,0.035429796894906315,-0.04214966896636384,0.014965825143758264,0.8526489747913875,-1.0142613099621358,0.35048741773132697
17839839,0.03542830889074729,-0.04214958328993444,0.014964380000180078,0.8550746964181846,-1.01714722687288,0.35151200573269015
17841028,0.035424131410992266,-0.042149529384221715,0.014960229503986198,0.8574879541000542,-1.0200186501519304,0.3525311666079184
17842214,0.03541528170563815,-0.042149507476632556,0.014951390785992232,0.8598945214600461,-1.0228828269718722,0.3535471553935257
17843457,0.03539995527648268,-0.04214951379809033,0.014936061227811409,0.8624156586241879,-1.0258846586085768,0.35461088156925763
17844632,0.035377118906474256,-0.042149541856914954,0.014913210854694707,0.8647973361596792,-1.02872227286533,0.3556148768173888
17845823,0.035346861218413725,-0.04214958379110985,0.014882932218286099,0.8672093802861973,-1.0315985298373511,0.35663047729802727
17847013,0.035310441950195906,-0.042149631616239594,0.014846489047911686,0.8696169160490179,-1.0344723750769247,0.357642740282036
17848216,0.03527008104592576,-0.0421496782359589,0.014806104836251582,0.872047970673798,-1.0373776184778427,0.358663278045765
17849397,0.03522857791344236,-0.042149718138452155,0.014764581748353899,0.8744317587452026,-1.040229734608059,0.3596623428941242
17850680,0.035188863982786825,-0.04214974775634621,0.01472485299980375,0.877018509207233,-1.0433281830131147,0.36074477398139104
17851932,0.0351535805338012,-0.042149765513746204,0.014689560660462404,0.8795402272600318,-1.0463517676097123,0.3617985195669809
17853147,0.0351247491893633,-0.042149771617887175,0.01466072625157712,0.8819854146203142,-1.0492859974954036,0.3628191168196375
17854198,0.035103572877102945,-0.04214976767279248,0.01463955190044005,0.8840992768071582,-1.0518241664840622,0.3637006793689262
17855174,0.035090376612311514,-0.04214975619864765,0.014626361363467483,0.8860615545570143,-1.0541812095464456,0.36451859545406784
17856408,0.03508467418196429,-0.04214974013530308,0.01462066695841286,0.8885421459921875,-1.057161322282626,0.365552320351881
17857618,0.03508533083380576,-0.04214972239441421,0.014621332477399211,0.8909745380615002,-1.060083473735652,0.36656598652847416
17858831,0.03509078392140404,-0.04214970550567192,0.014626794008933457,0.893413339843343,-1.0630128690185165,0.36758254550223585
17860034,0.03509928244493103,-0.042149691381763624,0.014635299596318055,0.8958326218632258,-1.065918113325533,0.3685913102034664
17861225,0.03510911107900638,-0.04214968120706204,0.014645133321278168,0.8982284420929799,-1.068794376945148,0.3695906834601578
17862414,0.035118772707171744,-0.04214967543875188,0.014654797837996919,0.9006208973103044,-1.0716658101741168,0.3705890369003163
17863613,0.035127113734267704,-0.042149673897507414,0.014663139640259865,0.9030340471110804,-1.0745613932823104,0.37159635998325796
17864807,0.03513338676797567,-0.042149675918408444,0.014669411667617809,0.9054375628805564,-1.0774449015366454,0.37259991146279237
17866025,0.035137254270339605,-0.04214968053127506,0.01467327686678832,0.9078896604233192,-1.0803863700778065,0.37362390456915473
17867224,0.035138743568281075,-0.042149686642205295,0.014674763111418097,0.9103036091662413,-1.0832819540615308,0.3746320261571293
17868413,0.03513816774893358,-0.04214969319365956,0.014674184017364374,0.912697385664615,-1.086153388500047,0.37563170027458936
17869612,0.0351360284524868,-0.042149699287668166,0.014672041673904748,0.9151111478854907,-1.0890489733524849,0.37663963490623037
17870786,0.035132915752750016,-0.042149704264411406,0.014668926484967662,0.9174743720763762,-1.0918841835427613,0.377626343842305
17871968,0.03512941774884855,-0.0421497077354996,0.014665426744141487,0.9198534631121617,-1.094738713969409,0.37861953950391253
17873162,0.035126048851487346,-0.04214970957700913,0.014662056924375055,0.9222564768862533,-1.0976222245263678,0.37962258783692476
17874368,0.03512320170463433,-0.04214970989127641,0.01465920961872641,0.9246834448183721,-1.1005347151106397,0.3806355203125584
17875555,0.03512112382405473,-0.042149708948487366,0.01465713220807529,0.9270720356204524,-1.1034013206215876,0.3816323531973052
17876780,0.03511991680263436,-0.0421497071193616,0.014655926100089013,0.9295370088072632,-1.106359696020511,0.38266101351753384
17877850,0.03511955360566667,-0.042149704809043606,0.014655564057559842,0.9316900651612505,-1.1089437462273213,0.3835594946220974
17878835,0.035119908165606936,-0.042149702400118824,0.014655919821656642,0.9336721043383052,-1.1113225212817517,0.3843866211375005
17880012,0.035120791145755004,-0.04214970020994359,0.01465680389695495,0.9360405497838461,-1.1141649761990926,0.3853750339637339
17881190,0.03512198622344262,-0.04214969846466109,0.014657999847632622,0.9384110881635781,-1.1170098459985665,0.386364367282979
17882394,0.035123282321879695,-0.04214969728973554,0.014659296534066467,0.940834036834565,-1.1199175057125632,0.38737562593270647
17883618,0.03512449864309025,-0.042149696714831306,0.014660513143344926,0.9432973191229937,-1.1228734653814911,0.3884037682197248
17884819,0.03512550087772186,-0.04214969668953235,0.014661515391230999,0.9457143832102392,-1.1257738800548993,0.3894126598064983
17886009,0.03512620838313031,-0.042149697105768144,0.014662222689043228,0.9481093575641132,-1.1286477297596784,0.39041235914575045
17887223,0.03512659327632883,-0.042149697822820534,0.01466260722410636,0.9505526606938084,-1.1315795395083796,0.39143224723561804
17888415,0.035126673193343824,-0.04214969869130199,0.014662686707118795,0.9529516919596066,-1.1344582193209491,0.3924336584326695
17889611,0.0351264998927468,-0.04214969957335295,0.014662512965583255,0.9553587617903403,-1.137346559193333,0.39343841816421005
17890799,0.03512614595260967,-0.04214970035732975,0.014662158633413268,0.9577497067277506,-1.1402155791199335,0.3944364329764062
17891987,0.03512569158975411,-0.0421497009662843,0.014661703965936614,0.9601406207378691,-1.143084599087984,0.3954344168405756
17893178,0.035125213204129174,-0.04214970136044467,0.014661225383026201,0.9625375397649418,-1.1459608640828514,0.39643488820786815
17894382,0.03512477471360277,-0.042149701534604,0.01466078680519118,0.9649605913872563,-1.1488685240896768,0.39744624966263553
17895605,0.03512442218426737,-0.04214970151177029,0.014660434287053103,0.9674218558324762,-1.1518220690950098,0.39847354643844896
17896819,0.035124181752237124,-0.0421497013346175,0.014660193943414383,0.969864991223606,-1.1547538790879814,0.39949326666756724
17898007,0.03512406042734577,-0.042149701056238234,0.014660072757578274,0.972255794204763,-1.1576228990621549,0.4004911394996476
17899199,0.0351240490962393,-0.04214970073148107,0.014660061588772859,0.9746546462537318,-1.1605015790140616,0.40149237141012234
17900396,0.03512412690893524,-0.04214970040982362,0.014660139562274889,0.9770635659381955,-1.1633923339437064,0.4024978084665397
17901596,0.03512426622723103,-0.04214970013035067,0.014660279020331082,0.9794785325941726,-1.1662903338539599,0.40350577500375867
17902803,0.03512443741024168,-0.042149699919031405,0.014660450309059464,0.9819075983939762,-1.1692052387490757,0.4045196331914224
17904007,0.035124612879109826,-0.04214969978816675,0.014660625843438073,0.9843306388522809,-1.1721128986354246,0.40553098354238515
17905200,0.035124770104835154,-0.04214969973763606,0.014660783094513213,0.9867315526447464,-1.1749939935193578,0.40653310473022225
17906401,0.03512489336817812,-0.042149699757425066,0.01466090634804075,0.9891485749279046,-1.1778944084038745,0.407541954407375
17907624,0.035124974322766706,-0.042149699830863877,0.01466098726597495,0.9916098780629812,-1.1808479532914218,0.4085692899319357
17908825,0.03512501153400478,-0.04214969993803157,0.014661024423674972,0.9940269084773936,-1.1837483681883665,0.40957814773413626
17909995,0.03512500925791577,-0.04214970005887332,0.014661022087189897,0.9963815507768223,-1.186573918096072,0.41056096492020083
17911197,0.035124975764459096,-0.042149700175703506,0.014660988535323188,0.9988005912427194,-1.1894767480092991,0.4115706602656104
17912409,0.03512492150448586,-0.04214970027490984,0.014660934225735514,1.001239753069337,-1.1924037279286936,0.4125887519672929
17913635,0.035124857378279375,-0.04214970034780986,0.014660870063056164,1.0037070855280446,-1.1953645178522778,0.41361859929705996
17914810,0.035124753628029345,-0.04214958137860255,0.014660766291440069,1.006071773191749,-1.1982021347697314,0.4146055993357494
17916008,0.035124348566125535,-0.04214853460338442,0.014660361223720001,1.0084827205550695,-1.2010952246779625,0.4156118915712086
17917223,0.035122817701422435,-0.04214407059781467,0.014658830369174997,1.0109277734560316,-1.2040290576907213,0.41663235684320216
17918434,0.03511861323813564,-0.04213153817970406,0.014654625933524994,1.0133644850726384,-1.206952362429774,0.4176491708331826
17919635,0.03510975254544127,-0.04210498913065939,0.014645765288275329,1.015780465482002,-1.2098497006763047,0.4186569786202302
17920820,0.035094429245321024,-0.042059009985385205,0.014630442057258688,1.0181632192580121,-1.2127053181350582,0.4196503197802458
17922000,0.03507160687842151,-0.041990501111625174,0.014607619781123755,1.0205343762227652,-1.2155442547571942,0.42063792663563027
17923188,0.03504137013870218,-0.041899728381417846,0.014577383151201242,1.0229195506921216,-1.218396259744806,0.4216301710023501
17924360,0.035004974772628844,-0.041790470995957486,0.01454098790867853,1.0252701576269818,-1.2212025171859906,0.42260660784425247
17925550,0.03496463717573378,-0.04166938876153293,0.014500650441793935,1.027654115736409,-1.2240436185179921,0.42359529086815856
17926746,0.0349231539986494,-0.04154487986698286,0.014459167392911556,1.0300472511367729,-1.2268905126649925,0.42458611619135544
17927927,0.03488345488587474,-0.04142573856494353,0.014419468398458733,1.0324076860044715,-1.229693639764896,0.42556182849086116
17929091,0.03484818032723404,-0.04131988866025097,0.014384193941443583,1.0347317908605924,-1.232449357652829,0.4265211432865485
17930278,0.03481935204723638,-0.04123339499412002,0.01435536574159162,1.0370998581368867,-1.2352536445690137,0.4274974530066657
17931456,0.034798173773849445,-0.04116986633211967,0.014334187524526903,1.039448540980468,-1.2380323811589047,0.42846493079829717
17932661,0.03478497178123936,-0.04113027771392803,0.014320985564540385,1.0418501446290918,-1.2408720737033716,0.4294536718960329
17933839,0.03477926132560259,-0.041113170504777315,0.01431527512012289,1.0441975509877914,-1.243646983640811,0.430419873205742
17935025,0.03477990911030422,-0.041115140460802925,0.014315922898568641,1.04656094300438,-1.2464408723314861,0.43139268017258225
17936178,0.0347853537539726,-0.041131499661492606,0.014321367523408537,1.048858934219075,-1.2491581028514875,0.4323387788376692
17937367,0.0347938452136482,-0.0411569951290054,0.01432985895687863,1.0512292538542818,-1.2519619100501849,0.4333149959199337
17938563,0.0348036687568444,-0.0411864809088218,0.014339682471372416,1.0536142014385625,-1.2547842446389545,0.4342976334489939
17939748,0.03481332749646088,-0.04121546567077026,0.014349341183882706,1.055977869671142,-1.2575825892357724,0.43527188912502013
17940946,0.034821667748393015,-0.04124048864446387,0.014357681413311823,1.0583680409190543,-1.2604133505571455,0.4362574053142144
17942137,0.034827941788452804,-0.041259307663019724,0.014363955437272296,1.0607446743607187,-1.2632288557330604,0.43723759119640504
17943315,0.03483181159401075,-0.04127091011747428,0.01436782523377014,1.0630956275697399,-1.2660144122154737,0.43820733934599004
17944499,0.03483330394526357,-0.041275377988814345,0.014369317582641209,1.0654586563119708,-1.268814459684048,0.4391821280283207
17945667,0.03483273140062136,-0.04127365053492322,0.014368745041190272,1.0677897139178314,-1.2715765530695629,0.4401437055753041
17946874,0.034830595151186194,-0.04126723267031324,0.014366608798958982,1.0701984587606421,-1.2744304300544442,0.4411372428577698
17948050,0.034827484940648426,-0.04125789460907806,0.014363498597907056,1.072545129008872,-1.2772103802560943,0.44210505304784353
17949240,0.03482398867367048,-0.041247400641141775,0.014360002341043124,1.074919497425279,-1.2800227096035153,0.44308414640609184
17950412,0.03482062069871353,-0.04123729399198759,0.014356634375438545,1.0772577248635837,-1.2827918208473328,0.4440482037877456
17951603,0.03481777371065539,-0.04122875258835424,0.014353787394961941,1.0796336644430073,-1.285605240967154,0.4450276958101171
17952852,0.03481569536014675,-0.04122251897417407,0.014351709049681496,1.0821251601567894,-1.2885552245384435,0.4460547389644428
17954086,0.034814487425291835,-0.041218897926588706,0.014350501117529998,1.084586648579889,-1.2914695239454632,0.4470693623289912
17955275,0.03481412307388515,-0.041217808341619706,0.014350136766478633,1.0869583496378727,-1.2942774740249217,0.44804696083058315
17956339,0.03481447642966837,-0.04121887201807579,0.014350490120700877,1.0890807344474347,-1.2967902881416344,0.44892180558958655
17957329,0.03481535831466567,-0.04122152094815743,0.014351372002802395,1.091055559810164,-1.2991284891253196,0.4497358559051095
17958981,0.03481655251936275,-0.04122510616655984,0.01435256620389765,1.094351037995513,-1.3030305537534885,0.4510943640113448
17960210,0.03481784802980262,-0.04122899444559686,0.014353861710618334,1.096802789444687,-1.3059337557777335,0.4521051129014005
17961388,0.034819064062944924,-0.04123264339368036,0.014355077740408003,1.099152882266387,-1.3087167294695028,0.45307400066620923
17962572,0.0348200662843218,-0.0412356500845291,0.014356079959139376,1.1015150129894886,-1.3115140818684439,0.4540478913319503
17963753,0.034820773997326304,-0.04123777259131762,0.014356787670389722,1.1038712064724003,-1.314304490003453,0.45501936225752815
17965055,0.03482115924866015,-0.04123892726552248,0.014357172920897481,1.1064688337848372,-1.3173808770655708,0.45609039450669536
17966256,0.034821239599677756,-0.041239167015071305,0.014357253271931648,1.1088649609746741,-1.32021863616051,0.45707834913817175
17967436,0.03482106674001935,-0.04123864711507636,0.014357080412960178,1.111219179166243,-1.3230067406708874,0.45804901727244696
17968599,0.034820713191915126,-0.04123758529886604,0.014356726865992982,1.1135394570963768,-1.3257546068197976,0.45900567764618855
17969789,0.03482025913368067,-0.04123622221590043,0.014356272809114275,1.1159135712253718,-1.328566174000079,0.45998451671757434
17970966,0.034819780945341286,-0.04123478706505216,0.014355794622137732,1.1182617174061475,-1.331346929798454,0.46095263034146217
17972154,0.03481934254212368,-0.041233471599094886,0.014355356220120356,1.1206317790373714,-1.3341535844284471,0.46192976191534807
17973340,0.03481899000159125,-0.04123241401569378,0.014355003680510233,1.1229978267097347,-1.3369554421848981,0.4629052245305326
17974522,0.034818749481169864,-0.04123169272282846,0.014354763160675587,1.1253558781684905,-1.3397478013195825,0.4638773809323422
17975686,0.03481862801722367,-0.041231328749880926,0.01435464169697601,1.1276780121134604,-1.342497612944525,0.46483472482124955
17976861,0.03481861652381647,-0.041231294756879096,0.014354630203513682,1.1300220898494369,-1.345273408473304,0.46580111500063004
17978069,0.03481869417570645,-0.04123152819412124,0.014354707855114692,1.132432006632542,-1.3481271786717686,0.4667946517255296
17979258,0.03481883335424171,-0.04123194614733939,0.01435484703321022,1.1348040285768763,-1.3509360918847435,0.46777257111254406
17980300,0.03481900443153427,-0.04123245969425122,0.014355018109997123,1.136882799821683,-1.3533977605327832,0.4686295973070873
17981281,0.03481917983489133,-0.04123298609863752,0.014355193512858449,1.1388398870233671,-1.3557153495674334,0.46943646196142247
17982509,0.03481933703526602,-0.041233457773790984,0.014355350712806577,1.141289748322056,-1.358616503380581,0.47044649320081083
17983678,0.03481946030842342,-0.041233827562202986,0.014355473985645299,1.1436219128150327,-1.3613782942784953,0.47140800513731473
17984878,0.03481954129966536,-0.04123407042487493,0.014355554976693944,1.1460159281282953,-1.364213340127484,0.47239502039259385
17986069,0.03481957856444054,-0.0412341820580475,0.014355592241399675,1.1483919908696298,-1.3670271307503719,0.4733746355763748
17987266,0.03481957634874688,-0.041234175229746046,0.01435559002574387,1.1507800235483823,-1.3698550961725755,0.4743591856972864
17988456,0.0348195429136999,-0.04123407474975053,0.014355556590815634,1.1531540888440825,-1.372666516934368,0.4753379759354922
17989654,0.034819488703341214,-0.04123391197048538,0.01435550238062552,1.1555441105215933,-1.3754968268305778,0.47632334255513364
17990859,0.034819424613608166,-0.041233719592663205,0.01435543829107994,1.157948092842491,-1.378343661148652,0.4773144623178366
17992055,0.03481936055571505,-0.04123352735533271,0.014355374233366195,1.1603341157190943,-1.3811692196305616,0.47829817513669226
17993255,0.03481930443175037,-0.04123335896351935,0.014355318109552272,1.162728114746519,-1.3840042165630706,0.4792851741061863
17994468,0.034819261565568,-0.04123323038239652,0.014355275243479227,1.165148045784217,-1.3868699170259888,0.4802828625853339
17995665,0.03481923456712355,-0.0412331494321247,0.014355248245097544,1.1675360550225438,-1.389697812095865,0.481267389265887
17996856,0.03481922355931363,-0.04123311647023912,0.014355237237305533,1.1699120935385863,-1.392511530003815,0.48224698022444656
17998047,0.03481922666597362,-0.041233125857313015,0.01435524034394545,1.172288132266625,-1.395325248552332,0.4832265713950009
17999236,0.03481924064794964,-0.04123316786647863,0.014355254325873628,1.1746601819577136,-1.3981342449945346,0.4842045185286985
18000445,0.03481926157875803,-0.04123323071125785,0.014355275256617932,1.1770721330093914,-1.4009904955199268,0.4851989170220154
18001640,0.03481928546840611,-0.04123330241741078,0.014355299146196859,1.1794561557424774,-1.4038136760935924,0.4861818021974116
18002824,0.03481930876884516,-0.04123337233926153,0.01435532244657121,1.1818182350770903,-1.4066108739743877,0.4871556414748613
18003993,0.03481932872259999,-0.04123343220522297,0.014355342400272832,1.1841503907566109,-1.4093726383917793,0.48811714459793926
18005165,0.034819343543260994,-0.041233476658690406,0.014355357220896345,1.1864885324330923,-1.412141493299171,0.4890811162178308
18006366,0.03481935243957207,-0.04123350332962004,0.014355366117187084,1.1888845297632316,-1.4149788626632773,0.4900689409899786
18007526,0.03481935551178342,-0.04123351252290481,0.014355369189394274,1.1911987322180129,-1.4177193699040695,0.49102304338874775
18008740,0.03481935355890836,-0.04123350663954887,0.014355367236528447,1.1936206646512322,-1.4205874520727042,0.4920215607633481
18009922,0.0348193478387058,-0.04123348945616149,0.014355361516344606,1.1959787566329212,-1.4233799328886587,0.4929937576879645
18011122,0.03481933981958521,-0.04123346538038856,0.014355353497247956,1.198372758093434,-1.4262149371378527,0.4939807590905373
18012176,0.03481933095669831,-0.04123343877907438,0.014355344634386206,1.2004754888410236,-1.4287050142636148,0.49484767478723773
18013299,0.03481932251496789,-0.04123341344738452,0.014355336192678776,1.2027158740943864,-1.4313581023986186,0.49577134248638144
18014483,0.034819315451406346,-0.041233392255913305,0.014355329129135678,1.2050779538823322,-1.4341553016305237,0.49674518221716435
18015680,0.03481931035925791,-0.041233376983334936,0.014355324036999791,1.2074659683187148,-1.4369832123065553,0.4977297140957571
18016861,0.03481930746835264,-0.041233368317720794,0.01435532114610084,1.2098220625670142,-1.4397733224205973,0.4987010857870396
18018046,0.0348193066902561,-0.04123336599223635,0.014355320368004857,1.2121861367599382,-1.4425728823686683,0.4996757474227538
18019263,0.03481930769357747,-0.041233369011277395,0.014355321371322113,1.2146140510010284,-1.4454480424583411,0.5006767291050889
18020462,0.03481930999403715,-0.041233375920829436,0.014355323671774455,1.2170060554113793,-1.4482806780583337,0.5016629059575533
18021642,0.0348193130451879,-0.041233385080724556,0.014355326722916211,1.2193601550373596,-1.4510684268077263,0.5026334555265635
18022831,0.03481931631845686,-0.041233394904798916,0.014355329996176027,1.2217322098834775,-1.4538774387168423,0.5036114078152764
18024023,0.03481931936478713,-0.041233404045795154,0.014355333042498194,1.2241102499372611,-1.456693538748766,0.5045918278115095
18025213,0.03481932185399113,-0.04123341151336061,0.014355335531695917,1.2264843001606733,-1.4595049142897898,0.5055706029774673
18026420,0.03481932359146646,-0.04123341672410905,0.014355337269167209,1.228892265507434,-1.4623564526988968,0.5065633607659525
18027621,0.034819324514790556,-0.04123341949130994,0.014355338192489558,1.2312882609160067,-1.465193816293902,0.5075511836165396
18028813,0.03481932467468529,-0.041233419967692454,0.014355338352384606,1.233666301332438,-1.4680099174132368,0.5085316039754197
18029984,0.03481932420586392,-0.041233418557911385,0.014355337883565186,1.236002446710078,-1.4707764059182649,0.5094947517965226
18031169,0.03481932329340659,-0.041233415817619724,0.014355336971110851,1.2383665220302813,-1.4735759692492552,0.5104694145595129
18032357,0.03481932213972025,-0.041233412354318245,0.01435533581742791,1.2407365822727667,-1.4763826198466112,0.5114465447446408
18033541,0.034819320936043896,-0.04123340874186363,0.014355334613754798,1.2430986624327807,-1.4791798201968935,0.5124203848474904
18034717,0.03481931984109762,-0.04123340545642668,0.014355333518811169,1.245444782517936,-1.4819581203234369,0.513387644875868
18035902,0.03481931896806603,-0.04123340283746752,0.014355332645781382,1.2478088575444681,-1.4847576827731332,0.5143623073451878
18037117,0.034819318379836955,-0.04123340107348448,0.014355332057553242,1.2502327825307227,-1.4876281200987576,0.5153616447727819
18038329,0.0348193180914132,-0.041233400209284045,0.014355331769129658,1.2526507224969825,-1.4904914698648002,0.516358514680526
18039519,0.0348193180777482,-0.041233400169520214,0.014355331755464256,1.2550247724629229,-1.4933028446323784,0.5173372895890128
18040715,0.034819318284940934,-0.04123340079230551,0.014355331962656207,1.2574107924428897,-1.4961283944414614,0.5183209995112363
18041899,0.03481931864272826,-0.04123340186670638,0.014355332320442563,1.2597728724473292,-1.4989255943253454,0.5192948394585117
18043119,0.03481931907646996,-0.04123340316870797,0.01435533275418326,1.2622067724822226,-1.50180784429671,0.5202982894345028
18044319,0.03481931951724937,-0.04123340449151756,0.014355333194961763,1.2646007725468495,-1.5046428443594937,0.5212852894411932
18045511,0.034819319909223906,-0.04123340566761092,0.014355333586935578,1.2669788126378163,-1.507458944502182,0.5222657094746095
18046693,0.034819320213874266,-0.041233406581470296,0.01435533389158548,1.2693369027486519,-1.510251419705563,0.5232379045283775
18047866,0.03481932041125528,-0.0412334071733245,0.014355334088966335,1.271677037871909,-1.5130226324471727,0.5242026970950016
18049080,0.03481932049870051,-0.04123340743524984,0.014355334176411678,1.274098968005557,-1.5158907077154462,0.5252012121700368
18050285,0.03481932048765572,-0.04123340740165885,0.014355334165367179,1.2765029431374515,-1.5187375204794118,0.5261923247437532
18051491,0.034819320399410617,-0.041233407136486384,0.014355334077122448,1.278908913263358,-1.5215866957252733,0.5271842598114332
18052679,0.03481932026047882,-0.041233406719323386,0.014355333938191033,1.2812789733779284,-1.52439334593907,0.5281613898686465
18053879,0.03481932009826762,-0.04123340623242309,0.014355333775980177,1.2836729734825034,-1.5272283461215495,0.5291483899152848
18055133,0.03481931993751344,-0.04123340575000737,0.014355333615226309,1.2861747035802342,-1.5301909212775795,0.5301798049524719
18056358,0.034819319797768256,-0.041233405330728175,0.014355333475481406,1.2886185786658966,-1.5330849839005731,0.5311873674789906
18057535,0.034819319692034584,-0.04123340501357634,0.014355333369747977,1.290966693741072,-1.5358656464973597,0.5321554499973399
18058728,0.03481931962648527,-0.04123340481704555,0.014355333304198841,1.2933467288127887,-1.5386841090820282,0.533136692511458
18059783,0.034819319601083115,-0.04123340474099597,0.014355333278796786,1.2954514538746742,-1.5411765466523057,0.5340044300224076
18060994,0.034819319610841906,-0.04123340477044141,0.014355333288555556,1.2978673989463876,-1.544037534235018,0.5350004775356534
18062217,0.03481931964744327,-0.04123340488040323,0.014355333325156722,1.3003072840213763,-1.5469268718262554,0.5360063950515952
18063393,0.03481931970093777,-0.041233405041015726,0.014355333378650841,1.3026534040970876,-1.5497051719248085,0.5369736550705287
18064552,0.03481931976130327,-0.041233405222202126,0.014355333439015804,1.3049656091757131,-1.5524433095339687,0.5379269325931972
18065648,0.034819319819696964,-0.041233405397430596,0.014355333497408865,1.3071521292537318,-1.555032609648199,0.5388283926183004
18066822,0.0348193198693085,-0.0412334055462727,0.014355333547019743,1.30949425934064,-1.5578061847805706,0.5397940076485271
18068237,0.034819319905789625,-0.041233405655690676,0.014355333583500236,1.3123171844483463,-1.5611491224489866,0.5409578451879165
18069481,0.03481939926903072,-0.04123344539053688,0.014355333605002931,1.314798970199727,-1.5640880754291888,0.5419810352240783
18070665,0.03482009713804698,-0.041233794337980086,0.014355333611903342,1.3171611030158898,-1.5668853019376188,0.542954875258964
18072019,0.03482307314072836,-0.04123528230711008,0.014355333606303814,1.3198626242892353,-1.5700842726865494,0.5440685402984243
18073389,0.03483142808532926,-0.041239459691203136,0.014355333591424605,1.3225967248277082,-1.5733213730624465,0.545195365337183
18074600,0.03484912747557251,-0.041248309227229586,0.014355333570980146,1.3250147381237494,-1.5761833947937098,0.5461914128700249
18075961,0.03487978031151332,-0.04126363540233644,0.01435533354862047,1.3277346479029344,-1.5794011147579177,0.5473108354051911
18077291,0.03492545303040224,-0.04128647143041803,0.014355333527493599,1.3303960857077128,-1.5825472837079717,0.5484047604379464
18078578,0.03498596838899482,-0.041316728696829154,0.014355333509958445,1.3329759394095393,-1.5855939655745628,0.5494633179683497
18079695,0.0350588069129374,-0.04135314748335057,0.014355333497453233,1.3352196815159072,-1.588240541610925,0.5503820504939366
18081019,0.035139528714543754,-0.041393507874527315,0.014355333490504215,1.3378853525327021,-1.5913806370607235,0.5514710405237382
18082215,0.035222534977867016,-0.041435010495860326,0.014355333488845209,1.3402990032398907,-1.5942200023264133,0.5524547505505449
18083277,0.03530196284195738,-0.04147472395046146,0.014355333491610774,1.3424470612349835,-1.5967436612168524,0.5533282455745165
18084493,0.03537252974589263,-0.04151000698699018,0.014355333497564304,1.3449115243797944,-1.5996357326376747,0.5543284056023791
18085640,0.035430192442536375,-0.041538838003083424,0.014355333505325783,1.3472399349467492,-1.6023655927563367,0.5552718131291706
18087002,0.03547254507530485,-0.04156001408180993,0.0143553335135712,1.3500081006860996,-1.6056088054117565,0.5563920581616275
18088360,0.035498937612499885,-0.04157321020849478,0.01435533352118468,1.3527701902587512,-1.6088435199734146,0.5575090131945815
18089528,0.035510342479359656,-0.04157891258779709,0.014355333527354127,1.3551465945944088,-1.6116260419443869,0.5584696932233376
18090913,0.035509029179926675,-0.041578255956725076,0.014355333531610028,1.357964401341073,-1.6149254700857683,0.5596088557577741
18092150,0.03549812300692747,-0.041572802942238425,0.014355333533814112,1.3604803265230634,-1.6178719374747028,0.5606262882886869
18093364,0.03548112596016217,-0.04156430452323965,0.014355333534109397,1.362948289909709,-1.6207630289769828,0.5616248033190455
18094720,0.03546146869074202,-0.04155447600523863,0.014355333532845616,1.3657034005279318,-1.6239915240817726,0.5627401133528569
18096082,0.035442145432055726,-0.041544814487849475,0.014355333530494233,1.3684691939748301,-1.6272335506087328,0.5638603583866344
18097377,0.03542546337493268,-0.041536473553693394,0.014355333527565604,1.3710976937274193,-1.6303154753052087,0.564925495918533
18098594,0.03541291730448836,-0.0415302005874087,0.014355333524538088,1.3735669997515014,-1.6332113331530689,0.5659264784482992
18099792,0.03540518229702835,-0.041526333124015886,0.014355333521805468,1.3759972236386777,-1.636061714937808,0.5669118334774131
18101048,0.03540220369898681,-0.0415248438377594,0.014355333519645446,1.3785448900915902,-1.6390499879986433,0.5679448935077812
18102409,0.0354033553362472,-0.04152541964577631,0.014355333518208838,1.3813056280186933,-1.6422881217819008,0.569064316040576
18103755,0.03540763392846077,-0.04152755891408764,0.014355333517526634,1.3840362689687176,-1.6454907320764622,0.5701714010729566
18104971,0.0354138593279402,-0.04153067157587518,0.014355333517530416,1.386503611614443,-1.6483842432336584,0.5711715611022101
18106327,0.03542085533629535,-0.0415341695387681,0.01435533351808092,1.3892555668561908,-1.6516111606665849,0.5722868711348744
18107620,0.03542759313193756,-0.04153753839779934,0.014355333518999574,1.3918801649294341,-1.6546884045211174,0.5733503636660892
18108859,0.03543328742674307,-0.0415403855132259,0.014355333520098486,1.394395555253155,-1.6576373345062234,0.5743694411960784
18110241,0.03543744318900941,-0.04154246337178486,0.01435533352120551,1.3972015900704395,-1.6609267817159235,0.5755061362296164
18111594,0.035439857232826825,-0.041543670381414606,0.014355333522182313,1.39994892996526,-1.6641472964676143,0.5766189787625264
18112895,0.03544058362751438,-0.0415440335762094,0.014355333522934628,1.4025907351860636,-1.6672440638896286,0.5776890512942277
18114248,0.03543987450811412,-0.04154367902203419,0.014355333523414986,1.4053380764200851,-1.6704645793111506,0.5788018938272332
18115444,0.0354381085480221,-0.041542796053267196,0.014355333523619108,1.407766499468344,-1.6733113306632483,0.5797856038564229
18116749,0.03543571839260554,-0.04154160099003052,0.014355333523577676,1.4104160632941671,-1.6764174373895318,0.5808589663882696
18118099,0.035433126195499466,-0.04154030490670436,0.01435533352334548,1.4131567908852085,-1.6796305509931668,0.5819693414211966
18119276,0.03543069355272308,-0.04153908859926143,0.014355333522989778,1.4155461352604262,-1.6824318280144201,0.5829374239498801
18120613,0.03542868908305013,-0.041538086375622764,0.014355333522579474,1.4182601307572593,-1.685613830574725,0.5840371064824313
18121945,0.03542727407183067,-0.04153737887763404,0.014355333522176276,1.4209638686915063,-1.6887838793550218,0.58513267651483
18123125,0.035426504285086514,-0.04153699398808689,0.014355333521828526,1.4233590199220627,-1.6915921548050514,0.5861032265435081
18124277,0.035426344450796475,-0.04153691407126509,0.01435533352156795,1.4256973265058024,-1.6943337879356153,0.5870507465714885
18125402,0.03542669105183203,-0.04153708736927204,0.014355333521409098,1.4279808513701093,-1.6970111752100814,0.5879760590988028
18126835,0.0354273989320484,-0.04153744130491819,0.01435533352135102,1.430889612717667,-1.7004216006826351,0.5891547016335904
18128097,0.03542830765778902,-0.04153789566232061,0.014355333521380517,1.4334513370578188,-1.703425092675103,0.5901926966642289
18129318,0.03542926442913436,-0.041538374042398,0.014355333521476252,1.4359299027392536,-1.706331040343591,0.5911969691938788
18130492,0.03543014141032342,-0.04153881252798639,0.014355333521613025,1.43831311988686,-1.7091251587514578,0.5921625842223965
18131654,0.035430846469146134,-0.04153916505347969,0.01435533352176566,1.4406720240048139,-1.7118907406459334,0.5931183292506329
18132832,0.035431327333352226,-0.04153940548301641,0.014355333521912105,1.4430634411858985,-1.7146944190695361,0.594087234279268
18134008,0.035431569983257534,-0.041539526806797934,0.014355333522035534,1.4454508145856566,-1.7174933456026802,0.5950544943078628
18135075,0.03543159264555961,-0.04153953813803541,0.014355333522125365,1.4476169107139152,-1.7200328485155338,0.5959321018338127
18136317,0.03543143702021918,-0.04153946032644416,0.014355333522177303,1.450138259893666,-1.7229888529293997,0.5969536468640224
18137503,0.0354311583836426,-0.041539321009893417,0.014355333522192603,1.452545906118296,-1.725811565873759,0.597929131892871
18138683,0.0354308160176054,-0.04153914982892324,0.01435533352217679,1.4549413488608616,-1.7286199870780745,0.5988996819215726
18139839,0.035430465079830616,-0.04153897436207938,0.014355333522138098,1.457288047490102,-1.7313712762292588,0.5998504919496879
18141047,0.03543015062832829,-0.04153881713811556,0.01435533352208591,1.4597402851931094,-1.7342463149100984,0.6008440719790642
18142231,0.03542990410158666,-0.04153869387610704,0.01435533352202938,1.4621437862178213,-1.7370642252552733,0.6018179120078531
18143417,0.03542974219235751,-0.04153861292234751,0.014355333521976345,1.4645513362082956,-1.739886890083105,0.602793397036687
18144615,0.03542966776983882,-0.041538575711433,0.01435533352193263,1.466983240786745,-1.7427381122032541,0.6037787520658097
18145807,0.03542967232198708,-0.04153857798740233,0.014355333521901732,1.469402965853494,-1.7455750545683928,0.6047591720947844
18146980,0.03542973930888441,-0.04153869082213825,0.014355373192632817,1.471784125979117,-1.748366784798015,0.6057239672894857
18148177,0.035429847828827694,-0.041539442943554425,0.014355722122622948,1.4742140129361279,-1.7512156864105113,0.606708526470004
18149381,0.03542997608124796,-0.04154248307728138,0.014357210122233476,1.4766581186057646,-1.7540814579873008,0.60769894595489
18150569,0.0354301042400248,-0.041550902115406144,0.014361387589250874,1.479069753189271,-1.7569097192827954,0.608676488068307
18151759,0.03543021650173558,-0.041568657656313526,0.014370237267630086,1.4814854554178842,-1.7597439525688352,0.6096562792640908
18152956,0.035430302222880454,-0.041599353374715445,0.014385563650068121,1.4839153735386243,-1.762596963021312,0.6106428850675205
18154137,0.03543035618999154,-0.041645053098005355,0.014408399950462968,1.4863128152025722,-1.7654149303276265,0.6116178484059309
18155340,0.03543037816470649,-0.04170557946139515,0.014438657546281132,1.4887549185984466,-1.768289563411025,0.6126130591954326
18156527,0.03543037190665586,-0.04177841486888238,0.01447507670346665,1.491164541390544,-1.7711309171780978,0.6135975104688747
18157788,0.03543034390044381,-0.04185912267451629,0.014515437484681953,1.4937243829566789,-1.7741552378690075,0.6146462505073097
18159008,0.03543030200375528,-0.04194210799141167,0.014556940490623012,1.4962009912181395,-1.7770870269105912,0.6156637930356473
18160245,0.035430254199451346,-0.04202151195086827,0.014596654300187042,1.4987121062065947,-1.7800652964963342,0.6166983291467393
18161302,0.035430207584680885,-0.04209205554173463,0.014631937641586212,1.500857817646096,-1.7826144603665195,0.6175844632712596
18162276,0.03543016767386068,-0.04214969827543229,0.014660768898107912,1.5028350367452952,-1.7849666701901594,0.6184026234487986
18163536,0.03543013803807781,-0.04219203608222617,0.014681945145791395,1.5053928334405013,-1.7880126264418443,0.619462552448588
18164723,0.0354301202573702,-0.04221841972154576,0.014695141370337526,1.5078024391179081,-1.7908839049786713,0.6204619703398919
18165927,0.03543011412847668,-0.04222982151781367,0.01470084378328957,1.5102465543106114,-1.7937970919919153,0.6214760950899846
18167148,0.035430118050722194,-0.04222851017521502,0.014700187133443843,1.5127251797098304,-1.7967513203052847,0.6225044929392399
18168364,0.035430129506357134,-0.04221760972775533,0.014694734062468032,1.5151936559260228,-1.7996926915892582,0.6235282995705413
18169557,0.0354301455569385,-0.04220062070588769,0.0146862355648514,1.5176154433109033,-1.802577267118179,0.6245321605330988
18170746,0.03543016329122401,-0.042180972304769374,0.01467640696074398,1.5200291119126945,-1.8054508324361878,0.6255319860878693
18171965,0.03543018017909189,-0.04216165749227106,0.014666745362038915,1.5225036816587159,-1.8083955524896878,0.6265563637275551
18173168,0.03543019430680366,-0.04214498250185307,0.0146584043603777,1.5249457723818491,-1.8113004722285735,0.6275667209667628
18174360,0.03543020448857063,-0.04213244152526434,0.014652131345799527,1.52736553379375,-1.814177973435909,0.6285674112688497
18175546,0.03543021026567584,-0.04212470940906017,0.01464826385523077,1.5297731155911143,-1.8170404651578609,0.6295628017324228
18176739,0.035430211816009145,-0.04212173158834036,0.014646774561832783,1.5321949075050583,-1.819919648310694,0.6305639653829088
18177939,0.035430209803309166,-0.042122882220702526,0.014647350379426431,1.5346309092918495,-1.8228158043573015,0.6315710430122574
18179139,0.035430205196922894,-0.04212715851043454,0.014649489669351451,1.537066910761929,-1.8257122544199333,0.6325782677283466
18180337,0.03543019909030031,-0.042133380856636024,0.014652602359597748,1.5394988518103976,-1.828604304169777,0.6335840273927045
18181541,0.0354301925408887,-0.042140373589773586,0.014656100352833282,1.541942972412312,-1.8315113206965505,0.6345950655566869
18182736,0.03543018644686375,-0.042147108337519903,0.014659469239921757,1.5443688225924783,-1.834397068151123,0.6355987767889194
18183928,0.035430181468463696,-0.04215280014205457,0.014662316378092656,1.5467885824321848,-1.8372759597821384,0.636600162693769
18185004,0.03543017799461468,-0.042156954166308255,0.014664394252335643,1.5489728620733265,-1.8398749469148594,0.6375042263939266
18185984,0.03543017614980456,-0.042159367286752944,0.014665601270074845,1.5509622616428995,-1.8422421896510828,0.6383276979095877
18187168,0.035430175832213646,-0.04216009352189294,0.014665964465934524,1.5533657811013288,-1.8451022546315374,0.6393226105833897
18188355,0.03543017677207106,-0.04215938487193409,0.01466560990707505,1.5557753906223055,-1.8479695182029126,0.6403200200372109
18189537,0.0354301785989399,-0.04215761982506057,0.014664726929619273,1.5581748502690222,-1.850824584464839,0.6413131683048517
18190722,0.03543018090781782,-0.0421552308241102,0.014663531855575833,1.5605804000716048,-1.8536867348854253,0.6423087561132267
18191939,0.03543018331613194,-0.042152639831379,0.014662235761091179,1.5630509100367855,-1.8566259947767134,0.6433311386178949
18193143,0.035430185506433544,-0.042150208284096366,0.014661019443589933,1.565495030153434,-1.8595336897412058,0.6443425161210171
18194346,0.035430187252414765,-0.042148204687814425,0.014660017212014917,1.5679371203903307,-1.8624388315751321,0.6453529845289637
18195548,0.035430188428409344,-0.04214679026498898,0.014659309708764341,1.5703771807080207,-1.8653414610841847,0.6463625642543823
18196746,0.03543018900454604,-0.042146020766657896,0.014658924816739874,1.5728091210641997,-1.8682343784417985,0.6473687578943724
18197934,0.03543018903105565,-0.04214586094588328,0.014658844899968819,1.57522076141921,-1.871103137029698,0.6483665471493949
18199140,0.03543018861586362,-0.04214620733948411,0.014659018200037462,1.57766894175091,-1.874015385592159,0.6493794663982441
18200332,0.03543018789959294,-0.04214691486162726,0.014659372139095225,1.5800887020298406,-1.8768938752787128,0.6503806512216712
18201525,0.03543018703158759,-0.04214782315334052,0.014659826500565049,1.5825104922496738,-1.8797748418908566,0.6513827070226148
18202746,0.03543018614971009,-0.042148779483656265,0.01466030488473085,1.5849891224129717,-1.882723492392803,0.6524083147836606
18203957,0.03543018536564379,-0.042149656072679856,0.014660743373919684,1.5874474525205298,-1.8856480542452838,0.6534255532333989
18205140,0.035430184756400925,-0.042150360826732194,0.014661095902179622,1.5898489425843059,-1.8885050439394087,0.6544192956136667
18206349,0.035430184361829174,-0.04215084149350869,0.014661336333476264,1.5923032126221515,-1.8914248579118966,0.6554348951406281
18207549,0.03543018418721105,-0.04215108405598318,0.014661457657997312,1.5947392126477096,-1.8943229529738674,0.6564429427150037
18208744,0.03543018420960479,-0.04215110672939297,0.014661468989069025,1.5971650626746943,-1.89720897419216,0.6574467908669738
18209952,0.03543018438638696,-0.0421509511923915,0.014661391176610326,1.5996173027142082,-1.9001263806919495,0.6584615541571156
18211169,0.03543018466449669,-0.04215067269485366,0.014661251858739476,1.6020878127734088,-1.9030655034168462,0.6594838680552926
18212360,0.035430184989098244,-0.0421503304911318,0.014661080676251048,1.6045055428534953,-1.9059418113431343,0.6604843295478999
18213539,0.035430185310710176,-0.04214997971420019,0.014660905207918296,1.6068989129545004,-1.9087891151413292,0.6614746989707687
18214738,0.035430185590231054,-0.042149665402508904,0.014660747982672792,1.6093328830764213,-1.9116846976659365,0.6624818577524793
18215922,0.03543018580166691,-0.04214941898154019,0.014660624719706132,1.6117364032111603,-1.9145440385047565,0.663476408187493
18217128,0.03543018593268855,-0.04214925713787353,0.01466054376536486,1.6141845833574564,-1.9174564978043525,0.6644894328509384
18218330,0.0354301859833891,-0.04214918274074776,0.014660506554240706,1.616624643506759,-1.920359292082079,0.6654990950025388
18219528,0.035430185963759304,-0.0421491872831113,0.014660508830323167,1.6190565836542175,-1.923252426790471,0.666505397369766
18220742,0.03543018589045161,-0.042149254233371306,0.014660542323677972,1.6215210037985461,-1.926184205684387,0.6675251418311968
18221918,0.035430185783376526,-0.042149362699780604,0.014660596583485848,1.6239082839311423,-1.9290242228604186,0.6685129704350249
18223162,0.03543018566258526,-0.04214949089179805,0.014660660709496717,1.626433604062796,-1.9320284678537047,0.6695579229505331
18224372,0.03543018554576575,-0.04214961899215032,0.014660645447065308,1.6288899041827527,-1.9349506121380697,0.6705743146124891
18225570,0.03543018544653704,-0.04214973120422773,0.01466000371668845,1.6313218442947086,-1.9378437841813942,0.6715805823085427
18226752,0.035430185373591085,-0.04214981688887966,0.01465707057337666,1.6337213044002292,-1.9406983220003031,0.6725732120600887
18227936,0.03543018533061645,-0.042149870834485195,0.014648742610098596,1.636124824503013,-1.943557693492015,0.6735669564341396
18229130,0.03543018531685516,-0.042149892802304925,0.014631054213711775,1.6385486446057236,-1.946441216583629,0.6745678838357293
18230332,0.03543018532809592,-0.042149886549864776,0.014600398273123351,1.6409887047098963,-1.9493440593323563,0.6755734063584419
18231515,0.03543018535789263,-0.04214985855854615,0.014554711599673642,1.643390194814442,-1.952201014982288,0.6765599379141778
18232698,0.03543018539881238,-0.04214981668231717,0.01449417536752614,1.6457916849217613,-1.9550579677938107,0.6775423662691825
18233872,0.0354301854435528,-0.042149768900386894,0.014421313040049573,1.6481749050312737,-1.957893182331842,0.6785124194261827
18235081,0.0354301854858172,-0.04214972230675475,0.014340568047250472,1.6506291751469786,-1.960812918777595,0.6795057991423201
18236256,0.03543018552088851,-0.04214968241347776,0.01425754195347298,1.6530144252617907,-1.963650542496973,0.6804656530940136
18237458,0.035430185545892036,-0.04214965279020451,0.014178099395400469,1.655454485380963,-1.9665533691467834,0.6814420920927755
18238649,0.03543018555977768,-0.042149635016446876,0.014107523714680839,1.6578722154999923,-1.9694296296143843,0.6824047792605398
18239845,0.035430185563080425,-0.042149628889210436,0.014049858049275561,1.6603000956197476,-1.972317964643084,0.6833675563530415
18241037,0.035430185557533585,-0.042149632808686346,0.01400750745044118,1.6627198557387235,-1.975196639956097,0.6843242210546642
18242248,0.03543018554561236,-0.0421496442583625,0.01398112068889796,1.6651781858587686,-1.9781212009888391,0.6852943037559601
18243427,0.035430185530078144,-0.04214966030117674,0.013969723870861275,1.6675715559745923,-1.9809684832101337,0.6862379826878823
18244615,0.035430185513579744,-0.04214967802721155,0.013971046039662656,1.6699831960901772,-1.9838375016167817,0.6871889552723476
18245816,0.03543018549834912,-0.042149694907461524,0.013981960642145248,1.6724212262059788,-1.9867379161675616,0.6881510851806172
18247001,0.035430185486010214,-0.04214970902900057,0.013998964727124953,1.6748267763194,-1.989599691683115,0.6891015518723711
18248183,0.03543018547750141,-0.0421497192065096,0.014018627056178332,1.677226236431958,-1.9924542228866209,0.6900509439232675
18249372,0.03543018547309836,-0.04214972498140988,0.014037953171595605,1.6796399065448824,-1.9953256594906674,0.691007275016782
18250543,0.03543018547251408,-0.04214972653144809,0.014054635975520112,1.682017036656058,-1.998153626174428,0.6919502477371744
18251735,0.03543018547504815,-0.042149724520012824,0.014067181017462078,1.6844367967694005,-2.00103230775101,0.6929109879386953
18252927,0.035430185479756855,-0.04214971991597931,0.01407491370721091,1.6868565568830645,-2.003910989013152,0.6938722562563967
18254121,0.03543018548561889,-0.042149713812286924,0.014077889245250025,1.6892803769973204,-2.0067944998598515,0.694835341000414
18255313,0.03543018549167717,-0.04214970726590435,0.014076734333614019,1.6917001371117986,-2.0096731802580368,0.6957967336606524
18256510,0.035430185497144,-0.04214970117461332,0.014072452700239331,1.694130047227132,-2.012563935240133,0.6967618653607565
18257697,0.03543018550146406,-0.04214969619837426,0.014066224821063546,1.6965396573417955,-2.0154305398839445,0.6977185105807643
18258889,0.035430185504335944,-0.04214969272596243,0.014059227087006625,1.6989594174571383,-2.018309219289102,0.6986787075561236
18260164,0.03543018550569805,-0.04214969088183469,0.014052488380153688,1.701547667580612,-2.0213883435181224,0.6997052716078189
18261377,0.035430185505687654,-0.04214969056423985,0.014046793936333651,1.7040100576980808,-2.0243177377625607,0.7006815207038163
18262556,0.03543018550458372,-0.0421496915035464,0.014042638651437164,1.7064034278121822,-2.027165022091629,0.7016301251548748
18263625,0.03543018550274379,-0.042149693329496155,0.01404022552570812,1.7085734979155254,-2.0297466565951328,0.7024900775718661
18264605,0.035430185500543936,-0.04214969563727482,0.01403950028731521,1.7105628980101413,-2.032113356269554,0.7032783936025433
18265771,0.035430185498328555,-0.04214969804448172,0.014040210610267535,1.7129298781225668,-2.0349292460429997,0.704216376252686
18266935,0.03543018549637427,-0.0421497002338065,0.014041977663018242,1.715292798234669,-2.037740305962845,0.7051528678619956
18268010,0.03543018549486953,-0.04214970197903552,0.01404436868773682,1.7174750483381074,-2.0403364309963132,0.7060179021426086
18269258,0.035430185493909146,-0.04214970315454995,0.014046961468653738,1.7200084884581233,-2.0433503511192224,0.7070223319883153
18270420,0.03543018549350154,-0.04214970373048278,0.01404939439543277,1.7223673485698416,-2.0461565812720064,0.7079577082944672
18271617,0.03543018549358518,-0.04214970375703407,0.014051398874893976,1.724797258684931,-2.049047336431213,0.7089213960590555
18272788,0.03543018549405034,-0.04214970334207442,0.014052813675957523,1.7271743887975515,-2.0518753015591207,0.7098642465152512
18273966,0.03543018549476241,-0.04214970262615954,0.014053583103046281,1.7295657289108934,-2.0547201716394725,0.7108127850718857
18275161,0.035430185495583556,-0.04214970175856446,0.014053742502831139,1.7319915790259273,-2.0576060966615812,0.7117750231293578
18276361,0.03543018549639038,-0.042149700877089954,0.014053395461228337,1.7344275791414978,-2.0605040966231765,0.7127412634266659
18277540,0.03543018549708623,-0.04214970009337106,0.014052687190001807,1.7368209492550928,-2.0633513815325024,0.7136905466738286
18278737,0.0354301854976077,-0.042149699484388334,0.014051778161056239,1.7392508593704579,-2.066242136398678,0.7146542604510179
18279905,0.035430185497925766,-0.042149699089975,0.014050821193980524,1.7416218994830492,-2.0690628562417013,0.7155945620666481
18281116,0.03543018549804238,-0.042149698915414605,0.014049944126956745,1.744080229599794,-2.0719874210668334,0.7165694200952007
18282319,0.03543018549798394,-0.04214969893777866,0.014049239080558447,1.7465223197157633,-2.0748926658946623,0.7175377895071383
18283525,0.03543018549779305,-0.04214969911446513,0.01404875830562255,1.7489704998320086,-2.0778051557342705,0.718508540584462
18284707,0.03543018549752001,-0.04214969939243836,0.01404851579526474,1.751369959945922,-2.080659685595896,0.719459956808709
18285907,0.03543018549721506,-0.04214969971688777,0.01404849329538696,1.7538059600615492,-2.0835576854777216,0.7204258600579212
18287101,0.03543018549692222,-0.0421497000383539,0.014048649081347155,1.7562297801765783,-2.0864411953821302,0.7213869444483857
18288177,0.03543018549667513,-0.042149700317752045,0.014048927857273852,1.758414060280224,-2.089039735313211,0.7222530644860321
18289464,0.03543018549649495,-0.04214970052909868,0.014049270328490529,1.7610266704041813,-2.092147840246361,0.7232890530189755
18290663,0.035430185496390355,-0.04214970066006883,0.014049621331201967,1.7634606405196556,-2.09504342519308,0.7242542288422112
18291848,0.035430185496358936,-0.0421497007107544,0.01404993580752284,1.7658661906337794,-2.097905200143862,0.7252081562408892
18293063,0.03543018549638976,-0.042149700691140615,0.01405018232401737,1.7683326407507944,-2.1008394250920324,0.7261862508613841
18294267,0.03543018549646645,-0.042149700617871697,0.014050344196293231,1.7707767608667555,-2.103747085035618,0.7271555014708612
18295477,0.03543018549657028,-0.04214970051084872,0.014050418565117802,1.7732330609833016,-2.1066692349715024,0.7281295873887111
18296677,0.03543018549668297,-0.042149700390113745,0.014050413952550626,1.7756690610988923,-2.1095672348996155,0.7290956226925825
18297885,0.03543018549678883,-0.04214970027334687,0.014050346907329411,1.778121301215261,-2.1124845548191677,0.730068093591392
18299082,0.035430185496876175,-0.04214970017416132,0.014050238337934083,1.780551211330576,-2.11537530973265,0.7310317017628181
18300292,0.03543018549693797,-0.042149700101245566,0.014050110049244023,1.7830075114471475,-2.1182974596401376,0.7320057662919125
18301499,0.035430225167840675,-0.04214977940002483,0.014050061210807402,1.7854577243069112,-2.1212123700318415,0.7329774124075131
18302698,0.03543057409890562,-0.042150477248381654,0.014050646803457988,1.787891721118461,-2.124108008328344,0.7339426586782725
18303906,0.035432062103031105,-0.0421534532678947,0.01405353709182787,1.7903440911209436,-2.12702558800504,0.734915350380284
18305126,0.035436239582740496,-0.04216180825715528,0.014061838086457931,1.7928211144242283,-2.1299727342821653,0.7358982848292355
18306324,0.03544508928804498,-0.04217950770874247,0.01407951551595444,1.7952540775409902,-2.1328679501949983,0.736864707615586
18307531,0.035460415717153825,-0.04221016061176246,0.014110174607943275,1.7977063782585596,-2.135787036310136,0.7378405109336319
18308736,0.03548325208712385,-0.04225583339402382,0.014155875305633586,1.8001561921670888,-2.138704438810645,0.7388178525855751
18309956,0.035513509775157374,-0.04231634880520806,0.01421643250366112,1.8026386167225807,-2.141662387603594,0.7398115933158498
18311162,0.035549929043360705,-0.042389187366649636,0.014289318745789717,1.8050950709633666,-2.1445914257725103,0.7407989668092884
18312364,0.0355902899476282,-0.042469909189086205,0.014370087052913927,1.8075461573969531,-2.1475163083290223,0.7417886279072081
18313538,0.03563179308011873,-0.04255291545737162,0.014453133103749315,1.8099429386935628,-2.15037864061904,0.7427608214485937
18314745,0.03567150701078831,-0.04263234331315392,0.01453259047693619,1.8124098376418742,-2.153326923203554,0.7437658373609563
18315944,0.03570679045979174,-0.0427029101992215,0.014603175042045773,1.8148628098654458,-2.1562605123398364,0.7447690410175388
18317156,0.0357356218042482,-0.042760572872578076,0.014660843764128233,1.8173443802383287,-2.1592299127702907,0.7457871264373426
18318349,0.03575679811652537,-0.04280292548061147,0.014703192393589151,1.8197884955881558,-2.162155658158447,0.7467921464646817
18319553,0.03576999438133014,-0.04282931799497032,0.014729573419699098,1.822256057120509,-2.165110200907732,0.7478082531034178
18320759,0.03577569681168626,-0.04284072284332803,0.014740962206276062,1.8247281116228669,-2.168070439595648,0.7488268345773978
18321975,0.035775040159849024,-0.04283940953113456,0.014739631166078612,1.8272206183395605,-2.1710551327090153,0.7498537692647912
18323201,0.035769587072250704,-0.04282850335153031,0.014728708117462047,1.8297332395942876,-2.174063604895508,0.7508883818532971
18324381,0.035761088548720225,-0.04281150630388551,0.014711696968335915,1.8321510117389572,-2.1769580488739644,0.7518830252652952
18325566,0.03575125991463903,-0.04279184903826151,0.014692029549667543,1.8345783613608373,-2.179863422805697,0.752880547938823
18326758,0.035741598286466635,-0.04277252578663225,0.014672700548053134,1.8370193899007983,-2.1827846395720694,0.7538826430468546
18327947,0.035733257259363486,-0.04275584373829601,0.014656016971893664,1.839453706682737,-2.1856973678235865,0.754881079540122
18329145,0.03572698422564901,-0.04274329767693337,0.014643472939331069,1.8419060191649475,-2.188631282473699,0.7558862125579335
18330363,0.035723116723279845,-0.04273556267766894,0.014635742555508674,1.8443990018568515,-2.1916136375383335,0.7569075862851108
18331542,0.035721627425334766,-0.042732584086104294,0.014632770072940504,1.846812059375159,-2.1945002972662873,0.7578960551311055
18332763,0.035722203244680346,-0.042733735727670905,0.014633928260717737,1.8493111185132507,-2.1974898702230155,0.7589198176324169
18333962,0.03572434254112678,-0.04273801432192752,0.014638212941785363,1.8517652965233806,-2.2004258709296693,0.7599254283100094
18335143,0.03572745524086451,-0.04274423972139248,0.014644443310155394,1.8541828417854707,-2.2033182161449507,0.7609163638328932
18336339,0.03573095324476782,-0.04275123572809371,0.014651442780584348,1.8566313322368804,-2.2062477767348723,0.7619203649716787
18337527,0.03573432214213134,-0.04275797352097847,0.014658182408921992,1.8590636741377764,-2.2091582002257337,0.7629181091326673
18338741,0.03573716928898676,-0.04276366781248671,0.014663877010437323,1.8615494471497886,-2.2121327159318698,0.7639380855451596
18339933,0.03573924716956855,-0.04276782357143223,0.014668031824297365,1.8639903151165318,-2.215053611553077,0.7649398617953762
18341158,0.03574045419099069,-0.04277023761232006,0.014670444035614995,1.8664988421657367,-2.218055540330425,0.7659695410907351
18342348,0.03574081738795965,-0.04277096400475182,0.014671168118816878,1.8689357217770233,-2.220971749241007,0.7669698503470799
18343544,0.03574046282802009,-0.0427702548839118,0.014670456591227718,1.8713848638797794,-2.223902613132889,0.7679751544215437
18344739,0.035739579847872176,-0.04276848892320877,0.014668688443122878,1.8738318977485697,-2.2268309055570743,0.7689794968783897
18345961,0.035738384770184255,-0.04276609876791777,0.014666296545455995,1.8763341365748119,-2.229825192889088,0.7700063641218091
18347164,0.035737088671746624,-0.04276350657150939,0.014663703176774824,1.8787973805514417,-2.2327727455268924,0.7710170865915954
18348370,0.035735872350535484,-0.04276107392980098,0.014661269962283861,1.8812666832349039,-2.2357274805776237,0.7720301614343112
18349548,0.03573487011590346,-0.04275906946135953,0.014659265469978686,1.8836785878625513,-2.238613479524122,0.773019580176013
18350751,0.035734162610494856,-0.042757654451349894,0.01465785087691468,1.886141630155076,-2.241560628793877,0.7740298992653641
18351940,0.03573377771729646,-0.04275688466564882,0.01465708180830911,1.8885759823930457,-2.2444734279582392,0.7750284083002735
18353157,0.03573369780028184,-0.042756724832140006,0.014656922842787384,1.8910676561086641,-2.2474548100705976,0.7760504203406544
18354354,0.03573387110087942,-0.042757071433651386,0.014657270325487498,1.8935183939083589,-2.2503872203563704,0.7770556606160672
18355549,0.03573422504101719,-0.04275777931404125,0.014657978988804811,1.8959650611417889,-2.253314779510146,0.7780592698131059
18356772,0.03573467940387335,-0.04275868803969281,0.01465888832234176,1.8984690879814812,-2.256310997869105,0.7790864582589386
18358001,0.03573515778949873,-0.042759644810750716,0.014659845486607002,1.9009854331852936,-2.2593219829547193,0.7801187534595406
18359193,0.035735596280025365,-0.04276052179152963,0.014660722640802475,1.9034260518088064,-2.2622423798894102,0.781120030517601
18360399,0.03573594880936078,-0.042761226849895015,0.014661427675850762,1.9058953597754749,-2.2651971255067225,0.7821331162581209
18361665,0.035736189241390846,-0.042761707713662625,0.014661908362248753,1.908487536324851,-2.2682989082737066,0.7831966391415767
18362908,0.0357363105662819,-0.04276195036319862,0.014662150733428053,1.911032628259976,-2.2713443568181986,0.7842408577805999
18364133,0.03573632189738803,-0.042761973025232144,0.01466217307091517,1.9135408652745267,-2.274345705526246,0.7852699565590309
18365346,0.0357362440846918,-0.04276181739973668,0.014662017124097176,1.9160245263960716,-2.27731764245142,0.7862889635315667
18366412,0.03573610476639579,-0.04276153876311474,0.014661738208394996,1.9182071912220606,-2.279929401824008,0.7871844629287315
18367629,0.035735933583385025,-0.042761196397125154,0.014661395631476608,1.9206990208365178,-2.2829110957339585,0.7882067868520324
18368829,0.03573575811451691,-0.04276084545946611,0.014661044563293542,1.9231560305777124,-2.2858511149018446,0.7892148060241083
18370060,0.03573560088879176,-0.0427605310081194,0.014660730061675085,1.9256765019812505,-2.2888670623863003,0.7902488435093163
18371277,0.03573547762544912,-0.04276028448154583,0.014660483555052409,1.9281682998022334,-2.2918486927093227,0.7912711038344734
18372513,0.035735396670860946,-0.04276012257247379,0.014660321719483706,1.9306989942390975,-2.2948768612591355,0.7923093123916598
18373745,0.03573535945962333,-0.04276004815008401,0.014660247404240517,1.933221496099646,-2.2978952246573714,0.7933441558048087
18374930,0.035735361735712755,-0.04276005270232276,0.014660252077234197,1.9356477663067393,-2.3007984397610173,0.7943395209309974
18376148,0.03573539522916969,-0.042760119689268836,0.014660319180881877,1.9381416058696408,-2.3037825085676347,0.7953626097689293
18377351,0.03573544948914296,-0.04276022820922161,0.014660427799894904,1.940604736862622,-2.3067298352383423,0.7963731064773939
18378547,0.03573551361534919,-0.042760356461619006,0.014660556125050225,1.9430535398168567,-2.30966002083339,0.7973777321149649
18379737,0.03573557769472976,-0.04276048462035008,0.014660684326575496,1.945490062175497,-2.3125755152388194,0.7983773265656217
18380928,0.035735633825575076,-0.04276059688200258,0.014660796601837146,1.9479286358622456,-2.3154934673002012,0.7993777686731974
18382138,0.035735676686136926,-0.042760682603086506,0.014660882311569506,1.9504061150393588,-2.31845797533733,0.8003941767564705
18383367,0.03573570366968278,-0.04276073657014208,0.014660936248764196,1.9529224986821503,-2.3214690373008335,0.8014265487647402
18384539,0.03573571465703251,-0.042760758544812746,0.014660958182496,1.955322175277852,-2.3243404501850935,0.8024110416889406
18385745,0.035735711528001944,-0.04276075228673225,0.014660951879694226,1.9577914668486844,-2.3272951630107035,0.8034240945525598
18386937,0.03573569752489333,-0.04276072428050552,0.014660923831250353,1.9602320923868743,-2.3302155737746966,0.8044253853512375
18388148,0.035735676576548935,-0.04276068238381621,0.014660881899553557,1.962711619059836,-2.3331825318032537,0.8054426334126031
18389351,0.03573565267439887,-0.04276063457952271,0.014660834070325632,1.9651747640577313,-2.3361298864837754,0.8064531581239978
18390421,0.03573562936701697,-0.042760587964770405,0.01466078744175238,1.9673655898505733,-2.338751387789046,0.8073519594558811
18391666,0.035735609411611004,-0.04276054805397238,0.014660747527704708,1.9699147268496018,-2.3418016364608287,0.8083977581583973
18392861,0.03573559459372389,-0.04276051841821228,0.014660717897528618,1.9723614878541917,-2.3447293831568388,0.8094015548842889
18394068,0.03573558570337403,-0.04276050063752522,0.014660700128782511,1.974832818228944,-2.3476865285900295,0.8104154303484868
18395272,0.03573558263893039,-0.04276049450864798,0.014660694015442767,1.9772980058975806,-2.3506363236117758,0.8114267854022352
18396466,0.035735584600055124,-0.04276049843090436,0.01466069795418723,1.9797427187197436,-2.353561618943196,0.8124297407665195
18397680,0.035735590327873316,-0.04276050988654444,0.01466070942503804,1.982228381903837,-2.356535914993236,0.8134494968510324
18398729,0.03573559835316353,-0.04276052593712561,0.014660725487933159,1.9843762083170846,-2.3591059625448247,0.8143306544331487
18399708,0.035735607220304826,-0.04276054367140657,0.014660743230697139,1.986380710300232,-2.361504511254558,0.8151530131718481
18400684,0.03573561566423663,-0.04276056055926687,0.014660760122937315,1.9883790702571535,-2.3638957109126255,0.8159728528590381
18401854,0.03573562272809006,-0.04276057468696952,0.014660774251206099,1.9907746456790454,-2.366762211449793,0.8169556534311543
18403038,0.035735627818971154,-0.04276058486872723,0.01466078443041792,1.9931988864513417,-2.3696630126840996,0.8179502147006558
18404243,0.03573563070752175,-0.04276059064582423,0.01466079020280095,1.9956661249367655,-2.372615264339158,0.8189624163912071
18405441,0.03573563148268701,-0.042760592196151206,0.014660791747266519,1.9981190309696726,-2.3755503660910167,0.8199687381779506
18406639,0.03573563047633637,-0.0427605901834472,0.014660789728509448,2.000571936933503,-2.378485467704723,0.8209750598261258
18407833,0.035735628173143304,-0.042760585577059265,0.014660785116662842,2.0030166527365516,-2.3814107689979127,0.8219780211532962
18409027,0.03573562511983266,-0.042760579470437085,0.014660779005730089,2.0054613683307196,-2.384336069873341,0.8229809820624105
18410253,0.035735621845127845,-0.042760572921027404,0.014660772453457899,2.0079716037107813,-2.387339770312171,0.824010822535628
18411444,0.03573561879811648,-0.04276056682700531,0.014660766358081875,2.010410176372067,-2.390257720322621,0.8250112625793918
18412521,0.035735616308917494,-0.04276056184860848,0.014660761379701702,2.0126153338643125,-2.3928963700248667,0.825915942311763
18413687,0.03573561457199383,-0.042760558374762545,0.014660757906963709,2.0150027187398787,-2.39575306947043,0.8268953817900154
18414867,0.03573561364958935,-0.042760556529955016,0.014660756063997818,2.017418768551588,-2.3986440687846105,0.8278865811374021
18416067,0.035735613490794176,-0.042760556212366005,0.014660755748608312,2.0198757683491877,-2.401584068065331,0.828894580452043
18417276,0.03573561396072288,-0.0427605571522245,0.014660756690680232,2.022351195677822,-2.4045461174057614,0.8299101398268016
18418464,0.03573561487415706,-0.042760558979093574,0.014660758519500598,2.0247836255716076,-2.407456716881999,0.8309080593369035
18419691,0.03573561602859562,-0.04276056128797097,0.01466076082987934,2.0272959080430657,-2.4104628665033605,0.8319387389933469
18420870,0.03573561723275217,-0.04276056369628396,0.014660763239149457,2.029709910596983,-2.41335141630222,0.8329290988259805
18422067,0.035735618327902445,-0.042760565886584015,0.014660765429854422,2.0321607682268326,-2.416284066248226,0.8339345788063042
18423259,0.03573561920089257,-0.04276056763256346,0.014660767175748338,2.034601388415762,-2.419204466313702,0.8349358589059486
18424470,0.03573561978888946,-0.042760568808556235,0.014660768351274979,2.037080911148501,-2.4221714164618184,0.8359530990887454
18425670,0.03573562007695751,-0.04276056938469129,0.014660768926697855,2.039537911398932,-2.4251114166482015,0.836961099309445
18426848,0.03573562009021216,-0.042760569411199614,0.014660768952385633,2.0419498666456666,-2.4279975168329564,0.8379506195278321
18428040,0.03573561988261612,-0.042760568996006734,0.014660768536387064,2.0443904868811553,-2.430917916991551,0.8389518997204035
18429245,0.03573561952448092,-0.04276056827973572,0.014660767819421654,2.0468577245944863,-2.433870167102423,0.8399640998655747
18430432,0.03573561909047853,-0.04276056741173055,0.014660766950896555,2.049288107275114,-2.436778317152606,0.840961179949509
18431640,0.035735618649540175,-0.042760566529853675,0.014660766068703084,2.0517614874284185,-2.4397379171426388,0.8419758999738687
18432819,0.03573561825750748,-0.04276056574578836,0.01466076528452244,2.05417549005156,-2.442626467079946,0.8429662599446708
18434022,0.03573561795288648,-0.04276056513654668,0.014660764675340235,2.056638632656212,-2.445573816973984,0.8439767798728895
18435218,0.035735617755600975,-0.04276056474197616,0.014660764280961303,2.0590874427467356,-2.4485040168416004,0.8449814197745009
18436421,0.035735617668292176,-0.04276056456735923,0.014660764106617652,2.061550585331771,-2.4514513666964057,0.8459919396635195
18437610,0.03573561767948919,-0.042760564589754094,0.014660764129317154,2.0639850629165797,-2.4543644165544265,0.846990699555376
18438798,0.03573561776788033,-0.04276056476653735,0.014660764306392349,2.0664174930073336,-2.4572750164246,0.8479886194593764
18439977,0.03573561790693521,-0.04276056504464813,0.014660764584748819,2.0688314956067932,-2.460163566314544,0.8489789793829077
18441179,0.03573561806923602,-0.0427605653692507,0.01466076490952977,2.071292590719371,-2.463108466224696,0.8499886593273146
18442364,0.035735618230042086,-0.04276056569086355,0.01466076523124523,2.0737188783412743,-2.4660117161579547,0.8509840592943508
18443590,0.03573561836980268,-0.04276056597038515,0.014660765510796286,2.076229113477213,-2.4690154161085394,0.8520138992798836
18444774,0.03573561847552078,-0.04276056618182143,0.014660765722199993,2.0786533536156666,-2.47191621607516,0.8530084592802532
18445967,0.03573561854103178,-0.04276056631284318,0.014660765853143666,2.0810960212596505,-2.474839066050483,0.854010579289576
18447164,0.035735618566382264,-0.04276056636354357,0.014660765903739298,2.0835468789058558,-2.4777717160292005,0.8550160593024001
18448367,0.03573561855656764,-0.04276056634391341,0.014660765883996014,2.0860100215521173,-2.480719066006458,0.8560265793139277
18449544,0.03573561851991413,-0.042760566270605246,0.014660765810581997,2.088419929192746,-2.4836027159792637,0.8570152593202552
18450761,0.03573561846637693,-0.04276056616352962,0.014660765703419398,2.0909117368344208,-2.486584365943679,0.8580375393193256
18451941,0.0357356184059816,-0.04276056604273777,0.014660765582566432,2.093327786967705,-2.4894753659010096,0.8590287393102534
18453146,0.03573561834757207,-0.042760565925917635,0.01466076546571344,2.0957950245997807,-2.4924276158493703,0.8600409392929212
18454345,0.03573561829795779,-0.04276056582668826,0.014660765366477889,2.0982499772277903,-2.4953651657911715,0.8610480992688582
18455551,0.03573561826148467,-0.04276056575374164,0.014660765293547158,2.1007192623540267,-2.4983198657275922,0.8620611392396152
18456731,0.03573557856912809,-0.04276044669815963,0.014660685908986532,2.1031353097939802,-2.5012108576161527,0.8630523338438905
18457923,0.035735229631189254,-0.04275939989122481,0.014659988034213332,2.1055759033766352,-2.5041311779289015,0.8640535607308412
18459134,0.03573374163266874,-0.04275493589004444,0.014657012041752154,2.10805529579315,-2.507097737235902,0.8650705402813919
18460355,0.0357295641678265,-0.042742403480621215,0.014648657124844693,2.110554869887784,-2.510087916572563,0.8660953331867418
18461547,0.03572071448294193,-0.042715854405509616,0.014630957782091489,2.112994472135613,-2.5130052628780346,0.8670945774070702
18462736,0.03570538807616131,-0.042669875162799485,0.014600305015285066,2.1154268903383127,-2.515912134547698,0.8680892185410188
18463995,0.03568255172728511,-0.042601366095040276,0.014554632387176171,2.118000864995147,-2.5189852005524287,0.8691391225722792
18465230,0.03565229405675655,-0.042510593065919915,0.014494117138381751,2.12052363157972,-2.5219932623480137,0.8701647304709291
18466451,0.03561587480103432,-0.04240133528625164,0.014421278737979756,2.123015252176944,-2.524959581185869,0.8711736164057149
18467658,0.0355755139036996,-0.04228025258730408,0.014340557066365951,2.125475512625378,-2.527883514582079,0.8721653520544084
18468715,0.035534010772860135,-0.04215574319313319,0.014257550931222586,2.127627510556083,-2.5304365354808134,0.8730288127061497
18469939,0.035494296839424656,-0.042036601395598776,0.014178123185431137,2.1301167268046397,-2.5333845637711443,0.8740231249689585
18471145,0.0354590133844735,-0.0419307510367044,0.014107556383100517,2.132566898890669,-2.5362819245810018,0.8749979389175919
18472367,0.03543018203226556,-0.0418442569878461,0.01404989376658556,2.1350475587658164,-2.539211668752809,0.8759816484476505
18473555,0.035409005711755155,-0.04178072803456239,0.0140075411901276,2.137457757227654,-2.54205557369787,0.8769351051616119
18474738,0.0353958094393494,-0.041741139224958694,0.013981148685549984,2.1398569173012563,-2.5448848259805956,0.8778827601027129
18475936,0.035390107002835076,-0.04172403192158352,0.01396974382990853,2.1422861064150553,-2.54774877787878,0.8788416481227875
18477132,0.03539076365042532,-0.04172600186860722,0.013971057123088937,2.1447112851185888,-2.5506080835471994,0.8797990253225406
18478328,0.0353962167358255,-0.041742361127008264,0.013981963277265946,2.147136837498902,-2.5534685102461077,0.8807571498747133
18479517,0.0354047152590635,-0.04176785669701404,0.01399896029783363,2.149548772461599,-2.5563139321947745,0.8817108245911088
18480719,0.03541454389440837,-0.041797342601781994,0.014018617538559604,2.1519877553476325,-2.55919249540856,0.882676280149829
18481909,0.03542420552492965,-0.04182632749099268,0.014037940770147306,2.1544030477359595,-2.562044297133501,0.8836334147132581
18483109,0.03543254655495726,-0.04185135057814637,0.014054622804773584,2.1568392101859595,-2.5649217840395613,0.8845997393964923
18484327,0.03543881959169421,-0.041870169685330354,0.014067168859123062,2.1593123528444784,-2.567843746564309,0.8855814344921789
18485544,0.03544268709679086,-0.04188177219788918,0.014074903857525502,2.161783734685326,-2.5707641191362227,0.8865628629518827
18486736,0.035444176396891396,-0.04188624009603272,0.014077882453185975,2.1642044503306304,-2.5736248056306144,0.887524334024749
18487923,0.035443600578978864,-0.04188451264086051,0.014076730819116083,2.166614972805927,-2.576473375116738,0.8884816937586328
18489127,0.035441461283212315,-0.04187809475288034,0.014072452234104624,2.1690598707720974,-2.5793622985691385,0.8894524694716108
18490352,0.035438348583469746,-0.04186875665365763,0.014066226844108715,2.1715471938353614,-2.582300954805039,0.8904397403756161
18491534,0.03543485057901597,-0.041858262640847514,0.01405923084586512,2.1739469698854412,-2.5851357475173566,0.891391882261786
18492598,0.035431481680734685,-0.04184815594692256,0.014052493059572999,2.176106969006823,-2.5876869244873553,0.8922485603125493
18493574,0.03542863453278181,-0.0418396145041627,0.014046798772347137,2.1780881623698796,-2.590026624215037,0.8930340668630266
18494735,0.03542655665109475,-0.04183338086020801,0.014042643015307672,2.1804447510894533,-2.592809397443825,0.8939681890936683
18495917,0.035425349628697554,-0.04182975979399247,0.014040228974192985,2.182843883700866,-2.5956422598404187,0.8949190441044654
18497130,0.03542498643097775,-0.04182867020158464,0.014039502579860641,2.1853059124837833,-2.598549343240101,0.8958947864527881
18498293,0.035425340990437974,-0.04182973388044508,0.014040211697700256,2.187666479782177,-2.6013366672047553,0.8968303558409575
18499506,0.03542622397038226,-0.04183238282048168,0.014041977654897099,2.1901285945738116,-2.6042440086306358,0.897806270206452
18500691,0.03542741904811159,-0.04183596805362807,0.01404436780671256,2.192533956858552,-2.6070844825461963,0.898759819562938
18501911,0.03542871514678101,-0.041839856349404174,0.014046960000100167,2.1950104541973596,-2.6100091241109866,0.8997417140209917
18503110,0.03542993146834727,-0.04184350531374741,0.014049392639524545,2.197444406861707,-2.612883674160145,0.900706874133649
18504304,0.035430933703389046,-0.041846512018462616,0.014051397106552496,2.199868278162409,-2.615746442620191,0.9016681465197076
18505518,0.03543164120920048,-0.04184863453549383,0.014052812116018179,2.202332799534455,-2.6186573112868357,0.902645619044697
18506714,0.03543202610274652,-0.04184978921578419,0.014053581901936535,2.2047608057785753,-2.621525099576345,0.9036086513170037
18507906,0.035432106020021926,-0.04185002896734968,0.01405374173624336,2.2071806970585506,-2.6243833129748815,0.9045684736617252
18509135,0.035431932719583704,-0.04184950906587589,0.014053395135894917,2.209675690210279,-2.6273302094749655,0.9055580647433094
18510335,0.03543157877950467,-0.041848447245580504,0.014052687256815709,2.21211178612094,-2.6302074967625826,0.9065242563480688
18511535,0.03543112441661964,-0.04184708415695503,0.014051778532430968,2.2145478507919103,-2.6330846903311294,0.9074903854735418
