time_micros,accel_x,accel_y,accel_z,gyro_x,gyro_y,gyro_z
24511993,0.6672271490097046,-4.088935375213623,9.63619613647461,0.05161811411380768,0.03604104742407799,0.11301007121801376
24513181,0.6899667382240295,-4.120052814483643,9.521900177001953,0.05161811411380768,0.03604104742407799,0.11301007121801376
24514234,0.6827858090400696,-4.154760837554932,9.646967887878418,0.05161811411380768,0.03604104742407799,0.11301007121801376
24515203,0.7468156814575195,-4.172114372253418,9.558403015136719,0.05161811411380768,0.03604104742407799,0.11301007121801376
24516223,0.7312570214271545,-4.202633380889893,9.639786720275879,0.05161811411380768,0.03604104742407799,0.11301007121801376
24517204,0.6726128458976746,-4.149973392486572,9.594905853271484,0.05161811411380768,0.03604104742407799,0.11301007121801376
24518180,0.6373066306114197,-4.264269828796387,9.57515811920166,0.05161811411380768,0.03604104742407799,0.11301007121801376
24519141,0.7204856276512146,-4.152965545654297,9.588921546936035,0.05161811411380768,0.03604104742407799,0.11301007121801376
24520116,0.7127063274383545,-4.126037120819092,9.57994556427002,0.05161811411380768,0.03604104742407799,0.11301007121801376
24521092,0.6630383133888245,-4.132619380950928,9.566781044006348,0.05161811411380768,0.03604104742407799,0.11301007121801376
24522062,0.6067877411842346,-4.118855953216553,9.569772720336914,0.05161811411380768,0.03604104742407799,0.11301007121801376
24523028,0.7061238288879395,-4.121848106384277,9.583536148071289,0.05161811411380768,0.03604104742407799,0.11301007121801376
24523995,0.6774001121520996,-4.109879970550537,9.591914176940918,0.05161811411380768,0.03604104742407799,0.11301007121801376
24525247,0.6385034918785095,-4.117659091949463,9.559001922607422,0.05161811411380768,0.03604104742407799,0.11301007121801376
24526444,0.6163623332977295,-4.105690956115723,9.636795043945312,0.05161811411380768,0.03604104742407799,0.11301007121801376
24527643,0.6432907581329346,-4.058416843414307,9.57515811920166,0.05161811411380768,0.03604104742407799,0.11301007121801376
24528830,0.6762033104896545,-4.096714973449707,9.506340980529785,0.05161811411380768,0.03604104742407799,0.11301007121801376
24530040,0.6337162256240845,-4.149374961853027,9.52130126953125,0.05161811411380768,0.03604104742407799,0.11301007121801376
24531239,0.6301257610321045,-4.109879970550537,9.5823392868042,0.05161811411380768,0.03604104742407799,0.11301007121801376
24532423,0.6067877411842346,-4.127233982086182,9.534466743469238,0.05161811411380768,0.03604104742407799,0.11301007121801376
24533618,0.5774656534194946,-4.090730667114258,9.538057327270508,0.05161811411380768,0.03604104742407799,0.11301007121801376
24534818,0.6277320981025696,-4.109879970550537,9.494373321533203,0.05161811411380768,0.03604104742407799,0.11301007121801376
24536064,0.6259368658065796,-4.115265846252441,9.55481243133545,0.05161811411380768,0.03604104742407799,0.11301007121801376
24537276,0.6103782057762146,-4.122446537017822,9.579347610473633,0.05161811411380768,0.03604104742407799,0.11301007121801376
24538474,0.5619069933891296,-4.161343097686768,9.556608200073242,0.05161811411380768,0.03604104742407799,0.11301007121801376
24539662,0.5631037950515747,-4.168524265289307,9.574560165405273,0.05161811411380768,0.03604104742407799,0.11301007121801376
24540852,0.5732767581939697,-4.148776531219482,9.52130126953125,0.05161811411380768,0.03604104742407799,0.11301007121801376
24542049,0.6397002935409546,-4.203830242156982,9.605677604675293,0.05161811411380768,0.03604104742407799,0.11301007121801376
24543243,0.6797937750816345,-4.168524265289307,9.559599876403809,0.05161811411380768,0.03604104742407799,0.11301007121801376
24544446,0.6546605229377747,-4.143989086151123,9.57874870300293,0.05161811411380768,0.03604104742407799,0.11301007121801376
24545639,0.6600462198257446,-4.254096508026123,9.652952194213867,0.05161811411380768,0.03604104742407799,0.11301007121801376
24546836,0.6145671010017395,-4.177500247955322,9.630810737609863,0.05161811411380768,0.03604104742407799,0.11301007121801376
24548049,0.6115750074386597,-4.274442672729492,9.63021183013916,0.05161811411380768,0.03604104742407799,0.11301007121801376
24549265,0.5200182795524597,-4.227168083190918,9.645172119140625,0.05161811411380768,0.03604104742407799,0.11301007121801376
24550456,0.4847120940685272,-4.243325233459473,9.706210136413574,0.05161811411380768,0.03604104742407799,0.11301007121801376
24551652,0.46975186467170715,-4.368991374969482,9.673895835876465,0.05161811411380768,0.03604104742407799,0.11301007121801376
24552836,0.4392329454421997,-4.391132831573486,9.726555824279785,0.05161811411380768,0.03604104742407799,0.11301007121801376
24554079,0.4194854199886322,-4.352235794067383,9.651755332946777,0.05161811411380768,0.03604104742407799,0.11301007121801376
24555284,0.4763343632221222,-4.450375080108643,9.595504760742188,0.05161811411380768,0.03604104742407799,0.11301007121801376
24556469,0.43983134627342224,-4.476106643676758,9.599095344543457,0.05161811411380768,0.03604104742407799,0.11301007121801376
24557654,0.47753119468688965,-4.512011528015137,9.664321899414062,0.05161811411380768,0.03604104742407799,0.11301007121801376
24558834,0.4057219922542572,-4.547915935516357,9.645771026611328,0.05161811411380768,0.03604104742407799,0.11301007121801376
24560063,0.40033629536628723,-4.546120643615723,9.564387321472168,0.05161811411380768,0.03604104742407799,0.11301007121801376
24561116,0.3566523492336273,-4.573049068450928,9.71279239654541,0.05161811411380768,0.03604104742407799,0.11301007121801376
24562094,0.31955093145370483,-4.576639652252197,9.611063003540039,0.14324790239334106,0.1459967941045761,0.22174407541751862
24563064,0.34348735213279724,-4.4862799644470215,9.651156425476074,0.14324790239334106,0.1459967941045761,0.22174407541751862
24564030,0.2800558805465698,-4.490468502044678,9.685864448547363,0.14324790239334106,0.1459967941045761,0.22174407541751862
24564997,0.32972392439842224,-4.474910259246826,9.619441032409668,0.14324790239334106,0.1459967941045761,0.22174407541751862
24566426,0.22799421846866608,-4.493460655212402,9.584135055541992,0.14324790239334106,0.1459967941045761,0.22174407541751862
24567645,0.3231413960456848,-4.531160354614258,9.66372299194336,0.14324790239334106,0.1459967941045761,0.22174407541751862
24568804,0.27706384658813477,-4.476106643676758,9.642778396606445,0.14324790239334106,0.1459967941045761,0.22174407541751862
24569989,0.1986721158027649,-4.464138507843018,9.665518760681152,0.14324790239334106,0.1459967941045761,0.22174407541751862
24571155,0.3015986382961273,-4.4587531089782715,9.685864448547363,0.14324790239334106,0.1459967941045761,0.22174407541751862
24572331,0.30818116664886475,-4.447383403778076,9.7475004196167,0.14324790239334106,0.1459967941045761,0.22174407541751862
24573518,0.2716781497001648,-4.455162525177002,9.722966194152832,0.14324790239334106,0.1459967941045761,0.22174407541751862
24574703,0.2543242573738098,-4.422249794006348,9.707406997680664,0.14324790239334106,0.1459967941045761,0.22174407541751862
24575869,0.2483401596546173,-4.4372100830078125,9.737327575683594,0.14324790239334106,0.1459967941045761,0.22174407541751862
24577051,0.28424474596977234,-4.455162525177002,9.704415321350098,0.14324790239334106,0.1459967941045761,0.22174407541751862
24578219,0.18191663920879364,-4.4587531089782715,9.680479049682617,0.14324790239334106,0.1459967941045761,0.22174407541751862
24579383,0.25312742590904236,-4.534750938415527,9.66491985321045,0.14324790239334106,0.1459967941045761,0.22174407541751862
24580572,0.24893856048583984,-4.448579788208008,9.66252613067627,0.14324790239334106,0.1459967941045761,0.22174407541751862
24581748,0.2064514458179474,-4.550309658050537,9.657140731811523,0.14324790239334106,0.1459967941045761,0.22174407541751862
24582926,0.2561194896697998,-4.565269947052002,9.614653587341309,0.14324790239334106,0.1459967941045761,0.22174407541751862
24584105,0.21004191040992737,-4.505428791046143,9.58114242553711,0.14324790239334106,0.1459967941045761,0.22174407541751862
24585270,0.17832617461681366,-4.517396926879883,9.642778396606445,0.14324790239334106,0.1459967941045761,0.22174407541751862
24586455,0.2812527120113373,-4.537144660949707,9.628417015075684,0.14324790239334106,0.1459967941045761,0.22174407541751862
24587651,0.4434218108654022,-4.483287811279297,9.572765350341797,0.14324790239334106,0.1459967941045761,0.22174407541751862
24588823,0.22560057044029236,-4.460548400878906,9.587724685668945,0.14324790239334106,0.1459967941045761,0.22174407541751862
24589987,0.31356683373451233,-4.466532230377197,9.60507869720459,0.14324790239334106,0.1459967941045761,0.22174407541751862
24591153,0.43624088168144226,-4.415069103240967,9.57396125793457,0.14324790239334106,0.1459967941045761,0.22174407541751862
24592329,0.32792869210243225,-4.383353233337402,9.588323593139648,0.14324790239334106,0.1459967941045761,0.22174407541751862
24593520,0.2680876851081848,-4.435414791107178,9.566182136535645,0.14324790239334106,0.1459967941045761,0.22174407541751862
24594697,0.3602428138256073,-4.336677551269531,9.535064697265625,0.14324790239334106,0.1459967941045761,0.22174407541751862
24595879,0.36742374300956726,-4.388739109039307,9.55481243133545,0.14324790239334106,0.1459967941045761,0.22174407541751862
24597056,0.3680221438407898,-4.195452690124512,9.569772720336914,0.14324790239334106,0.1459967941045761,0.22174407541751862
24598231,0.32433822751045227,-4.300772666931152,9.513522148132324,0.14324790239334106,0.1459967941045761,0.22174407541751862
24599420,0.31416526436805725,-4.270852088928223,9.54763126373291,0.14324790239334106,0.1459967941045761,0.22174407541751862
24600609,0.4787279963493347,-4.232553958892822,9.52249813079834,0.14324790239334106,0.1459967941045761,0.22174407541751862
24601771,0.33810165524482727,-4.182886123657227,9.501554489135742,0.14324790239334106,0.1459967941045761,0.22174407541751862
24602949,0.35366031527519226,-4.157752513885498,9.35733699798584,0.14324790239334106,0.1459967941045761,0.22174407541751862
24604117,0.33151915669441223,-4.108683109283447,9.531474113464355,0.14324790239334106,0.1459967941045761,0.22174407541751862
24605312,0.35366031527519226,-4.119454383850098,9.539254188537598,0.14324790239334106,0.1459967941045761,0.22174407541751862
24606486,0.39255696535110474,-4.140997409820557,9.49497127532959,0.14324790239334106,0.1459967941045761,0.22174407541751862
24607687,0.43983134627342224,-4.172114372253418,9.509333610534668,0.14324790239334106,0.1459967941045761,0.22174407541751862
24608826,0.4117060899734497,-4.157154083251953,9.506340980529785,0.14324790239334106,0.1459967941045761,0.22174407541751862
24609997,0.40871402621269226,-4.205027103424072,9.524293899536133,0.14324790239334106,0.1459967941045761,0.22174407541751862
24611180,0.43025678396224976,-4.191862106323242,9.471633911132812,0.14324790239334106,0.1459967941045761,0.22174407541751862
24612389,0.39854106307029724,-4.171515941619873,9.493176460266113,0.14324790239334106,0.1459967941045761,0.22174407541751862
24613585,0.32433822751045227,-4.150571823120117,9.559599876403809,0.14324790239334106,0.1459967941045761,0.22174407541751862
24614755,0.3524634838104248,-4.143989086151123,9.513522148132324,0.14324790239334106,0.1459967941045761,0.22174407541751862
24615796,0.3668253421783447,-4.162539958953857,9.54763126373291,0.14324790239334106,0.1459967941045761,0.22174407541751862
24616761,0.42068222165107727,-4.096116542816162,9.538655281066895,0.14324790239334106,0.1459967941045761,0.22174407541751862
24617768,0.3387000560760498,-4.077565670013428,9.537458419799805,0.14324790239334106,0.1459967941045761,0.22174407541751862
24618761,0.2244037538766861,-4.020118236541748,9.599095344543457,0.14324790239334106,0.1459967941045761,0.22174407541751862
24619729,0.3189525306224823,-4.021315097808838,9.580544471740723,0.14324790239334106,0.1459967941045761,0.22174407541751862
24620690,0.2818511128425598,-3.9884026050567627,9.60507869720459,0.14324790239334106,0.1459967941045761,0.22174407541751862
24621654,0.24295446276664734,-3.9088141918182373,9.587126731872559,0.14324790239334106,0.1459967941045761,0.22174407541751862
24622612,0.3440857529640198,-3.9327504634857178,9.63140869140625,0.14324790239334106,0.1459967941045761,0.22174407541751862
24623575,0.2938193082809448,-3.898042678833008,9.673895835876465,0.14324790239334106,0.1459967941045761,0.22174407541751862
24624750,0.2561194896697998,-3.8501698970794678,9.690651893615723,0.14324790239334106,0.1459967941045761,0.22174407541751862
24625943,0.30818116664886475,-3.9070188999176025,9.71997356414795,0.14324790239334106,0.1459967941045761,0.22174407541751862
24627135,0.2561194896697998,-3.8800904750823975,9.734335899353027,0.14324790239334106,0.1459967941045761,0.22174407541751862
24628313,0.29082727432250977,-3.9351441860198975,9.728949546813965,0.14324790239334106,0.1459967941045761,0.22174407541751862
24629502,0.2794574797153473,-3.9572854042053223,9.722966194152832,0.14324790239334106,0.1459967941045761,0.22174407541751862
24630656,0.23098626732826233,-3.8537604808807373,9.79537296295166,0.14324790239334106,0.1459967941045761,0.22174407541751862
24631847,0.23577354848384857,-3.965663194656372,9.861797332763672,0.14324790239334106,0.1459967941045761,0.22174407541751862
24633013,0.2106403261423111,-3.938734769821167,9.761263847351074,0.14324790239334106,0.1459967941045761,0.22174407541751862
24634197,0.13703589141368866,-3.9423251152038574,9.868379592895508,0.14324790239334106,0.1459967941045761,0.22174407541751862
24635371,0.17473572492599487,-3.9429235458374023,9.831876754760742,0.14324790239334106,0.1459967941045761,0.22174407541751862
24636569,0.1615706980228424,-3.910011053085327,9.846238136291504,0.14324790239334106,0.1459967941045761,0.22174407541751862
24637754,0.12506769597530365,-3.9339473247528076,9.834270477294922,0.14324790239334106,0.1459967941045761,0.22174407541751862
24638947,0.10532016307115555,-3.855555772781372,9.877355575561523,0.30482175946235657,0.3170390725135803,0.645684540271759
24640146,0.09754083305597305,-3.8938539028167725,9.988659858703613,0.30482175946235657,0.3170390725135803,0.645684540271759
24641330,0.09035991132259369,-3.904026985168457,9.926424980163574,0.30482175946235657,0.3170390725135803,0.645684540271759
24642529,0.04966802895069122,-3.9130029678344727,10.087397575378418,0.30482175946235657,0.3170390725135803,0.645684540271759
24643723,-0.010172969661653042,-3.8776967525482178,9.944377899169922,0.30482175946235657,0.3170390725135803,0.645684540271759
24644899,0.10412333905696869,-3.8747048377990723,9.93300724029541,0.30482175946235657,0.3170390725135803,0.645684540271759
24646105,0.09395036846399307,-3.8184542655944824,9.983274459838867,0.30482175946235657,0.3170390725135803,0.645684540271759
24647280,0.11309949308633804,-3.7568180561065674,9.993447303771973,0.30482175946235657,0.3170390725135803,0.645684540271759
24648498,0.1418231725692749,-3.7292912006378174,9.935999870300293,0.30482175946235657,0.3170390725135803,0.645684540271759
24649693,0.07061237841844559,-3.7131340503692627,9.926424980163574,0.30482175946235657,0.3170390725135803,0.645684540271759
24650873,0.04308551922440529,-3.7406609058380127,9.953951835632324,0.30482175946235657,0.3170390725135803,0.645684540271759
24652041,-0.09754083305597305,-3.7568180561065674,9.939590454101562,0.30482175946235657,0.3170390725135803,0.645684540271759
24653235,-0.10113129019737244,-3.8052892684936523,9.923433303833008,0.30482175946235657,0.3170390725135803,0.645684540271759
24654282,-0.1537913680076599,-3.7029612064361572,9.937196731567383,0.30482175946235657,0.3170390725135803,0.645684540271759
24655743,-0.21123872697353363,-3.7574164867401123,9.91146469116211,0.30482175946235657,0.3170390725135803,0.645684540271759
24657076,-0.14062635600566864,-3.705354690551758,9.831277847290039,0.30482175946235657,0.3170390725135803,0.645684540271759
24658141,-0.1813182383775711,-3.6730406284332275,9.795971870422363,0.30482175946235657,0.3170390725135803,0.645684540271759
24659273,-0.1711452603340149,-3.6114044189453125,9.803750991821289,0.30482175946235657,0.3170390725135803,0.645684540271759
24660498,-0.20345939695835114,-3.7023627758026123,9.740918159484863,0.30482175946235657,0.3170390725135803,0.645684540271759
24661693,-0.2656940519809723,-3.6305534839630127,9.773232460021973,0.30482175946235657,0.3170390725135803,0.645684540271759
24662890,-0.17832617461681366,-3.6251678466796875,9.702619552612305,0.30482175946235657,0.3170390725135803,0.645684540271759
24663951,-0.23278149962425232,-3.5976409912109375,9.66372299194336,0.30482175946235657,0.3170390725135803,0.645684540271759
24664920,-0.21782124042510986,-3.5300207138061523,9.655943870544434,0.30482175946235657,0.3170390725135803,0.645684540271759
24665893,-0.2303878515958786,-3.455219268798828,9.536860466003418,0.30482175946235657,0.3170390725135803,0.645684540271759
24666864,-0.29202407598495483,-3.4528257846832275,9.573363304138184,0.30482175946235657,0.3170390725135803,0.645684540271759
24668021,-0.22679738700389862,-3.4510304927825928,9.481207847595215,0.30482175946235657,0.3170390725135803,0.645684540271759
24669198,-0.2399624139070511,-3.3977720737457275,9.504546165466309,0.30482175946235657,0.3170390725135803,0.645684540271759
24670424,-0.2662924528121948,-3.3714420795440674,9.433934211730957,0.30482175946235657,0.3170390725135803,0.645684540271759
24671612,-0.2501353919506073,-3.2475709915161133,9.372297286987305,0.30482175946235657,0.3170390725135803,0.645684540271759
24672814,-0.2734733819961548,-3.344513416290283,9.380675315856934,0.30482175946235657,0.3170390725135803,0.645684540271759
24673996,-0.2501353919506073,-3.325962781906128,9.372896194458008,0.30482175946235657,0.3170390725135803,0.645684540271759
24675206,-0.32972392439842224,-3.2858693599700928,9.33220386505127,0.30482175946235657,0.3170390725135803,0.645684540271759
24676418,-0.3213461637496948,-3.285270929336548,9.29988956451416,0.30482175946235657,0.3170390725135803,0.645684540271759
24677617,-0.28244951367378235,-3.2804837226867676,9.310062408447266,0.30482175946235657,0.3170390725135803,0.645684540271759
24678809,-0.3171572983264923,-3.2727043628692627,9.210128784179688,0.30482175946235657,0.3170390725135803,0.645684540271759
24680002,-0.3147636651992798,-3.3229708671569824,9.282535552978516,0.30482175946235657,0.3170390725135803,0.645684540271759
24681213,-0.3369048237800598,-3.275696277618408,9.237056732177734,0.30482175946235657,0.3170390725135803,0.645684540271759
24682420,-0.3668253421783447,-3.2601377964019775,9.204144477844238,0.30482175946235657,0.3170390725135803,0.645684540271759
24683633,-0.3524634838104248,-3.2864677906036377,9.202348709106445,0.30482175946235657,0.3170390725135803,0.645684540271759
24684806,-0.3147636651992798,-3.3433167934417725,9.174821853637695,0.30482175946235657,0.3170390725135803,0.645684540271759
24685983,-0.4057219922542572,-3.372040271759033,9.156869888305664,0.30482175946235657,0.3170390725135803,0.645684540271759
24687197,-0.4781295955181122,-3.311600923538208,9.073691368103027,0.30482175946235657,0.3170390725135803,0.645684540271759
24688395,-0.4607757031917572,-3.3774261474609375,9.072494506835938,0.30482175946235657,0.3170390725135803,0.645684540271759
24689597,-0.4781295955181122,-3.3768277168273926,9.172428131103516,0.30482175946235657,0.3170390725135803,0.645684540271759
24690782,-0.46137410402297974,-3.3343405723571777,8.91571044921875,0.30482175946235657,0.3170390725135803,0.645684540271759
24691956,-0.4799248278141022,-3.3618674278259277,9.00307846069336,0.30482175946235657,0.3170390725135803,0.645684540271759
24693172,-0.5271992087364197,-3.2864677906036377,9.038384437561035,0.30482175946235657,0.3170390725135803,0.645684540271759
24694373,-0.5008691549301147,-3.243382215499878,8.9647798538208,0.30482175946235657,0.3170390725135803,0.645684540271759
24695562,-0.6079845428466797,-3.2589409351348877,9.018038749694824,0.30482175946235657,0.3170390725135803,0.645684540271759
24696740,-0.5840481519699097,-3.1709747314453125,8.990511894226074,0.30482175946235657,0.3170390725135803,0.645684540271759
24697915,-0.5559229254722595,-3.1637938022613525,8.989315032958984,0.30482175946235657,0.3170390725135803,0.645684540271759
24699128,-0.6008036732673645,-3.145841360092163,8.903143882751465,0.30482175946235657,0.3170390725135803,0.645684540271759
24700340,-0.6055909395217896,-3.0955748558044434,8.956402778625488,0.30482175946235657,0.3170390725135803,0.645684540271759
24701534,-0.7641695737838745,-3.008805513381958,8.88219928741455,0.30482175946235657,0.3170390725135803,0.645684540271759
24702723,-0.5852450132369995,-3.0123958587646484,8.897758483886719,0.30482175946235657,0.3170390725135803,0.645684540271759
24703921,-0.5810561180114746,-2.9076743125915527,8.928277015686035,0.30482175946235657,0.3170390725135803,0.645684540271759
24705139,-0.6498732566833496,-2.9088709354400635,8.91211986541748,0.30482175946235657,0.3170390725135803,0.645684540271759
24706364,-0.7581855058670044,-2.8813440799713135,8.907333374023438,0.30482175946235657,0.3170390725135803,0.645684540271759
24707561,-0.6331177949905396,-2.8400537967681885,8.879806518554688,0.30482175946235657,0.3170390725135803,0.645684540271759
24708750,-0.6702191829681396,-2.706010103225708,8.840909004211426,0.30482175946235657,0.3170390725135803,0.645684540271759
24709950,-0.6337162256240845,-2.7784175872802734,8.895364761352539,0.30482175946235657,0.3170390725135803,0.645684540271759
24711152,-0.6450859904289246,-2.740119457244873,8.849287033081055,0.30482175946235657,0.3170390725135803,0.645684540271759
24712362,-0.5684894919395447,-2.6826720237731934,8.875019073486328,0.30482175946235657,0.3170390725135803,0.645684540271759
24713575,-0.6085829734802246,-2.6665148735046387,8.850483894348145,0.30482175946235657,0.3170390725135803,0.645684540271759
24714807,-0.5924258828163147,-2.5791471004486084,8.85706615447998,0.30482175946235657,0.3170390725135803,0.645684540271759
24715992,-0.4960818886756897,-2.512723684310913,8.882798194885254,0.30482175946235657,0.3170390725135803,0.645684540271759
24717210,-0.45957887172698975,-2.546234607696533,8.77328872680664,0.3805690407752991,0.45295658707618713,1.1566733121871948
24718285,-0.5601117610931396,-2.534266471862793,8.851680755615234,0.3805690407752991,0.45295658707618713,1.1566733121871948
24719255,-0.5200182795524597,-2.4391191005706787,8.813382148742676,0.3805690407752991,0.45295658707618713,1.1566733121871948
24720274,-0.5194199085235596,-2.452284097671509,8.78046989440918,0.3805690407752991,0.45295658707618713,1.1566733121871948
24721282,-0.5373721718788147,-2.4905824661254883,8.77328872680664,0.3805690407752991,0.45295658707618713,1.1566733121871948
24722256,-0.5894338488578796,-2.430741548538208,8.71823501586914,0.3805690407752991,0.45295658707618713,1.1566733121871948
24723226,-0.6295273303985596,-2.472630262374878,8.781068801879883,0.3805690407752991,0.45295658707618713,1.1566733121871948
24724200,-0.5631037950515747,-2.437922477722168,8.797225952148438,0.3805690407752991,0.45295658707618713,1.1566733121871948
24725177,-0.5583165287971497,-2.369703531265259,8.801414489746094,0.3805690407752991,0.45295658707618713,1.1566733121871948
24726146,-0.5625054240226746,-2.2955007553100586,8.794233322143555,0.3805690407752991,0.45295658707618713,1.1566733121871948
24727357,-0.5194199085235596,-2.1877870559692383,8.78046989440918,0.3805690407752991,0.45295658707618713,1.1566733121871948
24728542,-0.4769327640533447,-2.140512704849243,8.736187934875488,0.3805690407752991,0.45295658707618713,1.1566733121871948
24729726,-0.5236087441444397,-2.0693018436431885,8.622489929199219,0.3805690407752991,0.45295658707618713,1.1566733121871948
24730911,-0.4787279963493347,-2.0262162685394287,8.625481605529785,0.3805690407752991,0.45295658707618713,1.1566733121871948
24732123,-0.3626364767551422,-2.0830652713775635,8.410653114318848,0.3805690407752991,0.45295658707618713,1.1566733121871948
24733333,-0.8593167662620544,-2.071695327758789,8.356197357177734,0.3805690407752991,0.45295658707618713,1.1566733121871948
24734532,-0.9377084970474243,-2.114182472229004,8.560853958129883,0.3805690407752991,0.45295658707618713,1.1566733121871948
24735710,-0.6678255796432495,-2.0567352771759033,8.71703815460205,0.3805690407752991,0.45295658707618713,1.1566733121871948
24736895,-0.44820910692214966,-1.8544726371765137,8.985724449157715,0.3805690407752991,0.45295658707618713,1.1566733121871948
24738114,-0.3422905206680298,-1.8580631017684937,9.066510200500488,0.3805690407752991,0.45295658707618713,1.1566733121871948
24739311,-0.16695639491081238,-1.7856554985046387,8.997693061828613,0.3805690407752991,0.45295658707618713,1.1566733121871948
24740513,-0.17174367606639862,-1.610321283340454,8.838516235351562,0.3805690407752991,0.45295658707618713,1.1566733121871948
24741701,-0.21602600812911987,-1.563645362854004,8.80679988861084,0.3805690407752991,0.45295658707618713,1.1566733121871948
24742917,-0.2028609961271286,-1.4930329322814941,8.794832229614258,0.3805690407752991,0.45295658707618713,1.1566733121871948
24744132,-0.2878352105617523,-1.424814224243164,8.989315032958984,0.3805690407752991,0.45295658707618713,1.1566733121871948
24745332,-0.2698829174041748,-1.362579584121704,9.018637657165527,0.3805690407752991,0.45295658707618713,1.1566733121871948
24746533,-0.24355287849903107,-1.2764085531234741,9.0318021774292,0.3805690407752991,0.45295658707618713,1.1566733121871948
24747733,0.038896650075912476,-1.2315278053283691,9.02103042602539,0.3805690407752991,0.45295658707618713,1.1566733121871948
24748949,0.5062548518180847,-1.611518144607544,9.41358757019043,0.3805690407752991,0.45295658707618713,1.1566733121871948
24750171,-0.21722283959388733,-0.9748098850250244,9.009660720825195,0.3805690407752991,0.45295658707618713,1.1566733121871948
24751368,-0.4607757031917572,-0.9018038511276245,8.599151611328125,0.3805690407752991,0.45295658707618713,1.1566733121871948
24752557,-0.7133046984672546,-0.8922293186187744,8.844499588012695,0.3805690407752991,0.45295658707618713,1.1566733121871948
24753743,-0.5224119424819946,-0.8922293186187744,8.819366455078125,0.3805690407752991,0.45295658707618713,1.1566733121871948
24754926,-0.6205511689186096,-0.8760722279548645,8.757730484008789,0.3805690407752991,0.45295658707618713,1.1566733121871948
24756128,-0.8114439845085144,-0.9813923835754395,8.786454200744629,0.3805690407752991,0.45295658707618713,1.1566733121871948
24757349,-0.6277320981025696,-1.0903030633926392,8.737384796142578,0.3805690407752991,0.45295658707618713,1.1566733121871948
24758543,-0.7019349336624146,-1.0998775959014893,8.778675079345703,0.3805690407752991,0.45295658707618713,1.1566733121871948
24759741,-0.6402987241744995,-1.0400365591049194,8.778076171875,0.3805690407752991,0.45295658707618713,1.1566733121871948
24760945,-0.7587838768959045,-1.0717523097991943,8.69908618927002,0.3805690407752991,0.45295658707618713,1.1566733121871948
24762151,-0.6797937750816345,-1.0693587064743042,8.479470252990723,0.3805690407752991,0.45295658707618713,1.1566733121871948
24763352,-0.7180920243263245,-1.0914998054504395,8.547688484191895,0.3805690407752991,0.45295658707618713,1.1566733121871948
24764543,-0.7025333642959595,-1.0986807346343994,8.404069900512695,0.3805690407752991,0.45295658707618713,1.1566733121871948
24765598,-0.7216824889183044,-1.0514063835144043,8.344827651977539,0.3805690407752991,0.45295658707618713,1.1566733121871948
24766567,-0.7174935936927795,-1.1315933465957642,8.422022819519043,0.3805690407752991,0.45295658707618713,1.1566733121871948
24767538,-0.8371756076812744,-0.9987462759017944,8.384921073913574,0.3805690407752991,0.45295658707618713,1.1566733121871948
24768510,-0.8593167662620544,-0.8976150155067444,8.3161039352417,0.3805690407752991,0.45295658707618713,1.1566733121871948
24769476,-0.8162312507629395,-1.0268715620040894,8.158123970031738,0.3805690407752991,0.45295658707618713,1.1566733121871948
24770740,-0.9819908142089844,-0.8748754262924194,8.12341594696045,0.3805690407752991,0.45295658707618713,1.1566733121871948
24771930,-1.0119112730026245,-1.0208874940872192,8.079731941223145,0.3805690407752991,0.45295658707618713,1.1566733121871948
24773137,-1.0131081342697144,-1.1375774145126343,7.99655294418335,0.3805690407752991,0.45295658707618713,1.1566733121871948
24774323,-1.0388398170471191,-1.1471519470214844,7.971419811248779,0.3805690407752991,0.45295658707618713,1.1566733121871948
24775482,-1.2231500148773193,-1.1375774145126343,7.8876423835754395,0.3805690407752991,0.45295658707618713,1.1566733121871948
24776709,-1.1333885192871094,-1.249480128288269,7.930129528045654,0.3805690407752991,0.45295658707618713,1.1566733121871948
24777749,-1.0813268423080444,-1.205197811126709,7.9420976638793945,0.3805690407752991,0.45295658707618713,1.1566733121871948
24778978,-1.198016881942749,-1.2991480827331543,7.7637715339660645,0.3805690407752991,0.45295658707618713,1.1566733121871948
24780140,-1.1902375221252441,-1.2650387287139893,7.61117696762085,0.3805690407752991,0.45295658707618713,1.1566733121871948
24781331,-1.238708734512329,-1.1381758451461792,7.70692253112793,0.3805690407752991,0.45295658707618713,1.1566733121871948
24782516,-1.3105179071426392,-1.1579233407974243,7.6536641120910645,0.3805690407752991,0.45295658707618713,1.1566733121871948
24783699,-1.283589482307434,-0.9921637773513794,7.504660129547119,0.3805690407752991,0.45295658707618713,1.1566733121871948
24784884,-1.518764615058899,-0.9030007123947144,7.630325794219971,0.3805690407752991,0.45295658707618713,1.1566733121871948
24786062,-1.2399054765701294,-1.0292651653289795,7.652467250823975,0.3805690407752991,0.45295658707618713,1.1566733121871948
24787284,-1.260251522064209,-1.0131081342697144,7.431055545806885,0.3805690407752991,0.45295658707618713,1.1566733121871948
24788347,-1.174080491065979,-0.9341180324554443,7.47234582901001,0.3805690407752991,0.45295658707618713,1.1566733121871948
24789325,-1.2207564115524292,-0.9927622079849243,7.4944868087768555,0.3805690407752991,0.45295658707618713,1.1566733121871948
24790477,-1.2243468761444092,-1.1788676977157593,7.468156814575195,0.3805690407752991,0.45295658707618713,1.1566733121871948
24791640,-1.0567920207977295,-1.153136134147644,7.42686653137207,0.3805690407752991,0.45295658707618713,1.1566733121871948
24792836,-1.0286668539047241,-1.2620466947555542,7.44481897354126,0.3805690407752991,0.45295658707618713,1.1566733121871948
24794047,-1.1417663097381592,-1.3141083717346191,7.6261372566223145,0.4508185386657715,0.3594941794872284,1.2431107759475708
24795265,-1.0502095222473145,-1.2452912330627441,7.575272083282471,0.4508185386657715,0.3594941794872284,1.2431107759475708
24796477,-1.0920982360839844,-1.2794005870819092,7.42686653137207,0.4508185386657715,0.3594941794872284,1.2431107759475708
24797680,-1.0226826667785645,-1.357193946838379,7.3915605545043945,0.4508185386657715,0.3594941794872284,1.2431107759475708
24798874,-1.0286668539047241,-1.3105179071426392,7.5435566902160645,0.4508185386657715,0.3594941794872284,1.2431107759475708
24800080,-1.0747443437576294,-1.3105179071426392,7.317357540130615,0.4508185386657715,0.3594941794872284,1.2431107759475708
24801296,-1.090901494026184,-1.2028040885925293,7.503463268280029,0.4508185386657715,0.3594941794872284,1.2431107759475708
24802527,-1.104664921760559,-1.0974839925765991,7.407717704772949,0.4508185386657715,0.3594941794872284,1.2431107759475708
24803793,-1.1262075901031494,-1.0567920207977295,7.390363693237305,0.4508185386657715,0.3594941794872284,1.2431107759475708
24804979,-1.1208219528198242,-1.0161001682281494,7.380190849304199,0.4508185386657715,0.3594941794872284,1.2431107759475708
24806038,-1.149545669555664,-0.9807940125465393,7.386773109436035,0.4508185386657715,0.3594941794872284,1.2431107759475708
24807222,-1.2817941904067993,-0.9634401202201843,7.43165397644043,0.4508185386657715,0.3594941794872284,1.2431107759475708
24808422,-1.242897629737854,-0.9879749417304993,7.420882701873779,0.4508185386657715,0.3594941794872284,1.2431107759475708
24809623,-1.4026730060577393,-0.8563247323036194,7.373608112335205,0.4508185386657715,0.3594941794872284,1.2431107759475708
24810817,-1.4343887567520142,-0.8054598569869995,7.3640336990356445,0.4508185386657715,0.3594941794872284,1.2431107759475708
24811991,-1.494229793548584,-0.8018693923950195,7.468156814575195,0.4508185386657715,0.3594941794872284,1.2431107759475708
24813192,-1.5720230340957642,-0.7665632367134094,7.396347522735596,0.4508185386657715,0.3594941794872284,1.2431107759475708
24814378,-1.539110541343689,-0.8252074122428894,7.203659534454346,0.4508185386657715,0.3594941794872284,1.2431107759475708
24815576,-1.6815321445465088,-0.7605791091918945,7.43165397644043,0.4508185386657715,0.3594941794872284,1.2431107759475708
24816784,-1.679736852645874,-0.8587183356285095,7.377198696136475,0.4508185386657715,0.3594941794872284,1.2431107759475708
24817978,-1.7030749320983887,-0.9700226187705994,7.280256271362305,0.4508185386657715,0.3594941794872284,1.2431107759475708
24819191,-1.676146388053894,-0.9215514063835144,7.49987268447876,0.4508185386657715,0.3594941794872284,1.2431107759475708
24820398,-1.572621464729309,-1.0478159189224243,7.117488384246826,0.4508185386657715,0.3594941794872284,1.2431107759475708
24821467,-1.4954266548156738,-1.163309097290039,7.238367557525635,0.4508185386657715,0.3594941794872284,1.2431107759475708
24822440,-1.311714768409729,-1.3063290119171143,7.327530384063721,0.4508185386657715,0.3594941794872284,1.2431107759475708
24823463,-1.390704870223999,-1.1345853805541992,7.365828990936279,0.4508185386657715,0.3594941794872284,1.2431107759475708
24824447,-1.4714902639389038,-1.180662989616394,7.41250467300415,0.4508185386657715,0.3594941794872284,1.2431107759475708
24825420,-1.439774513244629,-1.201008915901184,7.46875524520874,0.4508185386657715,0.3594941794872284,1.2431107759475708
24826391,-1.3027385473251343,-1.2297325134277344,7.343687534332275,0.4508185386657715,0.3594941794872284,1.2431107759475708
24827356,-1.497820258140564,-1.1202235221862793,7.383182525634766,0.4508185386657715,0.3594941794872284,1.2431107759475708
24828324,-1.4996154308319092,-1.1154361963272095,7.1851091384887695,0.4508185386657715,0.3594941794872284,1.2431107759475708
24829548,-1.552873969078064,-0.9742115139961243,7.437039375305176,0.4508185386657715,0.3594941794872284,1.2431107759475708
24830757,-1.5199614763259888,-0.8653008937835693,7.469353675842285,0.4508185386657715,0.3594941794872284,1.2431107759475708
24831957,-1.589975357055664,-0.9867780804634094,7.407119274139404,0.4508185386657715,0.3594941794872284,1.2431107759475708
24833158,-1.370957374572754,-1.0334540605545044,7.48311710357666,0.4508185386657715,0.3594941794872284,1.2431107759475708
24834228,-1.5301344394683838,-0.9909669756889343,7.569886684417725,0.4508185386657715,0.3594941794872284,1.2431107759475708
24835204,-1.508591651916504,-1.1465535163879395,7.4256696701049805,0.4508185386657715,0.3594941794872284,1.2431107759475708
24836181,-1.497820258140564,-1.1692931652069092,7.593822956085205,0.4508185386657715,0.3594941794872284,1.2431107759475708
24837142,-1.6306672096252441,-1.1196250915527344,7.767960071563721,0.4508185386657715,0.3594941794872284,1.2431107759475708
24838118,-1.7084605693817139,-1.1058616638183594,7.712906360626221,0.4508185386657715,0.3594941794872284,1.2431107759475708
24839306,-1.797025203704834,-1.1651042699813843,7.613570690155029,0.4508185386657715,0.3594941794872284,1.2431107759475708
24840509,-1.7545381784439087,-0.9813923835754395,7.732654094696045,0.4508185386657715,0.3594941794872284,1.2431107759475708
24841700,-1.6408402919769287,-1.0202890634536743,7.71889066696167,0.4508185386657715,0.3594941794872284,1.2431107759475708
24842904,-1.7677031755447388,-1.0897046327590942,7.6805925369262695,0.4508185386657715,0.3594941794872284,1.2431107759475708
24844112,-1.707862138748169,-0.9610464572906494,7.7697553634643555,0.4508185386657715,0.3594941794872284,1.2431107759475708
24845312,-1.611518144607544,-1.1315933465957642,7.6805925369262695,0.4508185386657715,0.3594941794872284,1.2431107759475708
24846508,-1.5792039632797241,-1.1208219528198242,7.834383964538574,0.4508185386657715,0.3594941794872284,1.2431107759475708
24847711,-1.556464433670044,-1.122018814086914,7.95107364654541,0.4508185386657715,0.3594941794872284,1.2431107759475708
24848914,-1.4720885753631592,-1.2411023378372192,7.875674247741699,0.4508185386657715,0.3594941794872284,1.2431107759475708
24850125,-1.418830156326294,-1.2159690856933594,7.988175392150879,0.4508185386657715,0.3594941794872284,1.2431107759475708
24851385,-1.3715556859970093,-1.328470230102539,7.975010395050049,0.4508185386657715,0.3594941794872284,1.2431107759475708
24852582,-1.2680307626724243,-1.329667091369629,8.028268814086914,0.4508185386657715,0.3594941794872284,1.2431107759475708
24853791,-1.215370774269104,-1.4020746946334839,8.220956802368164,0.4508185386657715,0.3594941794872284,1.2431107759475708
24855000,-1.1621122360229492,-1.5474883317947388,8.171887397766113,0.4508185386657715,0.3594941794872284,1.2431107759475708
24856197,-1.0765396356582642,-1.5654405355453491,8.234121322631836,0.4508185386657715,0.3594941794872284,1.2431107759475708
24857401,-0.9915654063224792,-1.645029067993164,8.320891380310059,0.4508185386657715,0.3594941794872284,1.2431107759475708
24858584,-0.9299291372299194,-1.735388994216919,8.34243392944336,0.4508185386657715,0.3594941794872284,1.2431107759475708
24859788,-0.9365116357803345,-1.8538742065429688,8.408259391784668,0.4508185386657715,0.3594941794872284,1.2431107759475708
24860989,-0.8395692110061646,-1.8808026313781738,8.538113594055176,0.4508185386657715,0.3594941794872284,1.2431107759475708
24862201,-0.7916964292526245,-2.0298068523406982,8.547090530395508,0.4508185386657715,0.3594941794872284,1.2431107759475708
24863374,-0.7450204491615295,-2.0274131298065186,8.647623062133789,0.4508185386657715,0.3594941794872284,1.2431107759475708
24864553,-0.7150999307632446,-2.0896477699279785,8.708062171936035,0.4508185386657715,0.3594941794872284,1.2431107759475708
24865762,-0.6528652906417847,-2.2081329822540283,8.768502235412598,0.4508185386657715,0.3594941794872284,1.2431107759475708
24866972,-0.6325193643569946,-2.2877213954925537,8.821162223815918,0.4508185386657715,0.3594941794872284,1.2431107759475708
24868033,-0.6037957072257996,-2.3499560356140137,8.850483894348145,0.4508185386657715,0.3594941794872284,1.2431107759475708
24869006,-0.5283960103988647,-2.272761106491089,8.950418472290039,0.4508185386657715,0.3594941794872284,1.2431107759475708
24869977,-0.5230103731155396,-2.265580177307129,9.05693531036377,0.4508185386657715,0.3594941794872284,1.2431107759475708
24870949,-0.5409626364707947,-2.3158466815948486,9.095831871032715,0.4508185386657715,0.3594941794872284,1.2431107759475708
24871919,-0.6606446504592896,-2.3182404041290283,9.148491859436035,-0.27458393573760986,-0.1267545372247696,0.6017022728919983
24873143,-0.6588494181632996,-2.2943038940429688,9.21970272064209,-0.27458393573760986,-0.1267545372247696,0.6017022728919983
24874347,-0.5864418148994446,-2.2488248348236084,9.24842643737793,-0.27458393573760986,-0.1267545372247696,0.6017022728919983
24875551,-0.48351529240608215,-2.4600634574890137,9.365715026855469,-0.27458393573760986,-0.1267545372247696,0.6017022728919983
24876765,-0.29082727432250977,-2.541447401046753,9.475224494934082,-0.27458393573760986,-0.1267545372247696,0.6017022728919983
24877965,-0.29681137204170227,-2.678483247756958,9.587724685668945,-0.27458393573760986,-0.1267545372247696,0.6017022728919983
24879160,-0.16276751458644867,-2.7096004486083984,9.614055633544922,-0.27458393573760986,-0.1267545372247696,0.6017022728919983
24880367,-0.09395036846399307,-2.837061882019043,9.709800720214844,-0.27458393573760986,-0.1267545372247696,0.6017022728919983
24881420,-0.052061669528484344,-2.9226343631744385,9.731942176818848,-0.27458393573760986,-0.1267545372247696,0.6017022728919983
24882392,-0.023337990045547485,-2.954948663711548,9.807940483093262,-0.27458393573760986,-0.1267545372247696,0.6017022728919983
24883360,-0.08916308730840683,-3.0052151679992676,9.882143020629883,-0.27458393573760986,-0.1267545372247696,0.6017022728919983
24884338,-0.11908359080553055,-3.051292657852173,9.9126615524292,-0.27458393573760986,-0.1267545372247696,0.6017022728919983
24885540,-0.19927053153514862,-3.187730073928833,10.059870719909668,-0.27458393573760986,-0.1267545372247696,0.6017022728919983
24886753,-0.2244037538766861,-3.3020265102386475,9.968912124633789,-0.27458393573760986,-0.1267545372247696,0.6017022728919983
24887948,-0.07240761071443558,-3.1500303745269775,10.228622436523438,-0.27458393573760986,-0.1267545372247696,0.6017022728919983
24889141,0.31177160143852234,-3.0046167373657227,10.18673324584961,-0.27458393573760986,-0.1267545372247696,0.6017022728919983
24890362,0.35186508297920227,-3.0243642330169678,10.232213020324707,-0.27458393573760986,-0.1267545372247696,0.6017022728919983
24891435,0.2543242573738098,-3.166785717010498,10.335737228393555,-0.27458393573760986,-0.1267545372247696,0.6017022728919983
24892407,0.2656940519809723,-3.216453790664673,10.435073852539062,-0.27458393573760986,-0.1267545372247696,0.6017022728919983
24893577,0.1950816661119461,-3.3014280796051025,10.483545303344727,-0.27458393573760986,-0.1267545372247696,0.6017022728919983
24894785,0.16994844377040863,-3.3977720737457275,10.384807586669922,-0.27458393573760986,-0.1267545372247696,0.6017022728919983
24895974,0.2399624139070511,-3.4953129291534424,10.217252731323242,-0.27458393573760986,-0.1267545372247696,0.6017022728919983
24897185,0.26509562134742737,-3.5778934955596924,10.357878684997559,-0.27458393573760986,-0.1267545372247696,0.6017022728919983
24898393,0.25492265820503235,-3.627561569213867,10.382413864135742,-0.27458393573760986,-0.1267545372247696,0.6017022728919983
24899594,0.21303395926952362,-3.6945834159851074,10.437467575073242,-0.27458393573760986,-0.1267545372247696,0.6017022728919983
24900788,0.15917706489562988,-3.6305534839630127,10.537402153015137,-0.27458393573760986,-0.1267545372247696,0.6017022728919983
24901981,0.055652130395174026,-3.780754327774048,10.611604690551758,-0.27458393573760986,-0.1267545372247696,0.6017022728919983
24903191,0.06582509726285934,-3.7753686904907227,10.601431846618652,-0.27458393573760986,-0.1267545372247696,0.6017022728919983
24904403,0.03410936892032623,-3.8256351947784424,10.586471557617188,-0.27458393573760986,-0.1267545372247696,0.6017022728919983
24905608,-0.07958853244781494,-3.8914601802825928,10.523039817810059,-0.27458393573760986,-0.1267545372247696,0.6017022728919983
24906816,-0.15498818457126617,-3.9602773189544678,10.48593807220459,-0.27458393573760986,-0.1267545372247696,0.6017022728919983
24908024,-0.12566609680652618,-3.9842138290405273,10.461403846740723,-0.27458393573760986,-0.1267545372247696,0.6017022728919983
24909347,-0.42068222165107727,-4.036873817443848,10.406350135803223,-0.27458393573760986,-0.1267545372247696,0.6017022728919983
24910538,-0.3464793860912323,-4.020716667175293,10.385405540466309,-0.27458393573760986,-0.1267545372247696,0.6017022728919983
24911734,-0.6480780243873596,-4.033283233642578,10.331548690795898,-0.27458393573760986,-0.1267545372247696,0.6017022728919983
24912920,-0.7025333642959595,-4.044653415679932,10.134073257446289,-0.27458393573760986,-0.1267545372247696,0.6017022728919983
24914136,-0.8455533385276794,-4.008150100708008,10.201693534851074,-0.27458393573760986,-0.1267545372247696,0.6017022728919983
24915359,-0.8479470014572144,-4.129627227783203,10.062862396240234,-0.27458393573760986,-0.1267545372247696,0.6017022728919983
24916557,-0.8581199645996094,-4.154162406921387,10.04790210723877,-0.27458393573760986,-0.1267545372247696,0.6017022728919983
24917752,-0.8455533385276794,-4.178697109222412,9.969511032104492,-0.27458393573760986,-0.1267545372247696,0.6017022728919983
24918982,-0.8862451910972595,-4.241529941558838,9.846837043762207,-0.27458393573760986,-0.1267545372247696,0.6017022728919983
24920179,-0.8940245509147644,-4.361810684204102,9.792381286621094,-0.27458393573760986,-0.1267545372247696,0.6017022728919983
24921385,-0.8946229815483093,-4.369589805603027,9.66372299194336,-0.27458393573760986,-0.1267545372247696,0.6017022728919983
24922584,-0.9466846585273743,-4.408486366271973,9.560197830200195,-0.27458393573760986,-0.1267545372247696,0.6017022728919983
24923649,-0.9688258171081543,-4.458154678344727,9.499160766601562,-0.27458393573760986,-0.1267545372247696,0.6017022728919983
24924615,-0.9598496556282043,-4.483287811279297,9.35853385925293,-0.27458393573760986,-0.1267545372247696,0.6017022728919983
24925615,-0.9532671570777893,-4.4312262535095215,9.354345321655273,-0.27458393573760986,-0.1267545372247696,0.6017022728919983
24926603,-0.9706210494041443,-4.4647369384765625,9.255008697509766,-0.27458393573760986,-0.1267545372247696,0.6017022728919983
24927573,-1.0436270236968994,-4.557490825653076,9.13712215423584,-0.27458393573760986,-0.1267545372247696,0.6017022728919983
24928539,-1.0831221342086792,-4.5550971031188965,9.100619316101074,-0.27458393573760986,-0.1267545372247696,0.6017022728919983
24929511,-1.1226171255111694,-4.5748443603515625,8.982732772827148,-0.27458393573760986,-0.1267545372247696,0.6017022728919983
24930476,-1.0974839925765991,-4.613740921020508,8.959394454956055,-0.27458393573760986,-0.1267545372247696,0.6017022728919983
24931797,-1.1621122360229492,-4.593395233154297,8.885191917419434,-0.27458393573760986,-0.1267545372247696,0.6017022728919983
24932962,-1.208189845085144,-4.687345504760742,8.772690773010254,-0.27458393573760986,-0.1267545372247696,0.6017022728919983
24934180,-1.1519392728805542,-4.680763244628906,8.661386489868164,-0.27458393573760986,-0.1267545372247696,0.6017022728919983
24935400,-1.1585217714309692,-4.7064948081970215,8.63565444946289,-0.27458393573760986,-0.1267545372247696,0.6017022728919983
24936595,-1.142364740371704,-4.759753227233887,8.615907669067383,-0.27458393573760986,-0.1267545372247696,0.6017022728919983
24937802,-1.1854501962661743,-4.786681652069092,8.490241050720215,-0.27458393573760986,-0.1267545372247696,0.6017022728919983
24938994,-1.139372706413269,-4.811814785003662,8.42501449584961,-0.27458393573760986,-0.1267545372247696,0.6017022728919983
24940219,-1.1297980546951294,-4.859687805175781,8.377141952514648,-0.27458393573760986,-0.1267545372247696,0.6017022728919983
24941432,-1.1244124174118042,-4.781894207000732,8.304734230041504,-0.27458393573760986,-0.1267545372247696,0.6017022728919983
24942642,-1.0286668539047241,-4.889009952545166,8.17607593536377,-0.27458393573760986,-0.1267545372247696,0.6017022728919983
24943853,-0.9700226187705994,-4.836947917938232,8.103668212890625,-0.27458393573760986,-0.1267545372247696,0.6017022728919983
24945062,-0.8826547861099243,-4.7950592041015625,8.083322525024414,-0.27458393573760986,-0.1267545372247696,0.6017022728919983
24946279,-0.8635056614875793,-4.862679481506348,8.030662536621094,-0.27458393573760986,-0.1267545372247696,0.6017022728919983
24947503,-0.7994757890701294,-4.768729209899902,8.00852108001709,-0.27458393573760986,-0.1267545372247696,0.6017022728919983
24948699,-0.7342490553855896,-4.780697345733643,7.958853244781494,-1.5720616579055786,-0.5736024379730225,0.025045474991202354
24949886,-0.6510700583457947,-4.7400054931640625,7.896618366241455,-1.5720616579055786,-0.5736024379730225,0.025045474991202354
24951101,-0.6708176136016846,-4.772319793701172,7.874477386474609,-1.5720616579055786,-0.5736024379730225,0.025045474991202354
24952328,-0.6642351150512695,-4.7340216636657715,7.876871109008789,-1.5720616579055786,-0.5736024379730225,0.025045474991202354
24953535,-0.6175591349601746,-4.7340216636657715,7.823013782501221,-1.5720616579055786,-0.5736024379730225,0.025045474991202354
24954739,-0.4978771209716797,-4.690337657928467,7.837375640869141,-1.5720616579055786,-0.5736024379730225,0.025045474991202354
24955937,-0.5744736194610596,-4.707093238830566,7.809250354766846,-1.5720616579055786,-0.5736024379730225,0.025045474991202354
24957150,-0.5780640840530396,-4.634087085723877,7.7691569328308105,-1.5720616579055786,-0.5736024379730225,0.025045474991202354
24958363,-0.5948195457458496,-4.642464637756348,7.786510944366455,-1.5720616579055786,-0.5736024379730225,0.025045474991202354
24959566,-0.5056564807891846,-4.633488655090332,7.760180950164795,-1.5720616579055786,-0.5736024379730225,0.025045474991202354
24960772,-0.5266007781028748,-4.614339351654053,7.851139068603516,-1.5720616579055786,-0.5736024379730225,0.025045474991202354
24961986,-0.5331833362579346,-4.454564094543457,7.778731822967529,-1.5720616579055786,-0.5736024379730225,0.025045474991202354
24963181,-0.47932642698287964,-4.644259929656982,7.84335994720459,-1.5720616579055786,-0.5736024379730225,0.025045474991202354
24964383,-0.5313881039619446,-4.6711883544921875,7.90918493270874,-1.5720616579055786,-0.5736024379730225,0.025045474991202354
24965606,-0.46376776695251465,-4.709486961364746,7.9067912101745605,-1.5720616579055786,-0.5736024379730225,0.025045474991202354
24966821,-0.5086485147476196,-4.719659805297852,7.937310218811035,-1.5720616579055786,-0.5736024379730225,0.025045474991202354
24968011,-0.4721454977989197,-4.791469097137451,7.963640213012695,-1.5720616579055786,-0.5736024379730225,0.025045474991202354
24969213,-0.49907395243644714,-4.740603923797607,7.926538944244385,-1.5720616579055786,-0.5736024379730225,0.025045474991202354
24970438,-0.4883025586605072,-4.7124786376953125,8.020489692687988,-1.5720616579055786,-0.5736024379730225,0.025045474991202354
24971448,-0.5200182795524597,-4.7615485191345215,8.00612735748291,-1.5720616579055786,-0.5736024379730225,0.025045474991202354
24972421,-0.4918930232524872,-4.728635787963867,8.109053611755371,-1.5720616579055786,-0.5736024379730225,0.025045474991202354
24973392,-0.43205201625823975,-4.721455097198486,8.023481369018555,-1.5720616579055786,-0.5736024379730225,0.025045474991202354
24974359,-0.46017730236053467,-4.642464637756348,8.052205085754395,-1.5720616579055786,-0.5736024379730225,0.025045474991202354
24975337,-0.4081156253814697,-4.705297946929932,8.015702247619629,-1.5720616579055786,-0.5736024379730225,0.025045474991202354
24976581,-0.3919585645198822,-4.559884071350098,8.081526756286621,-1.5720616579055786,-0.5736024379730225,0.025045474991202354
24977757,-0.3069843351840973,-4.586812496185303,8.135982513427734,-1.5720616579055786,-0.5736024379730225,0.025045474991202354
24978936,-0.27227655053138733,-4.543128967285156,8.1389741897583,-1.5720616579055786,-0.5736024379730225,0.025045474991202354
24980143,-0.2662924528121948,-4.556293964385986,8.14256477355957,-1.5720616579055786,-0.5736024379730225,0.025045474991202354
24981345,-0.2519306242465973,-4.577836513519287,8.242499351501465,-1.5720616579055786,-0.5736024379730225,0.025045474991202354
24982556,-0.22201010584831238,-4.592198371887207,8.27780532836914,-1.5720616579055786,-0.5736024379730225,0.025045474991202354
24983609,-0.2573162913322449,-4.6239142417907715,8.283191680908203,-1.5720616579055786,-0.5736024379730225,0.025045474991202354
24984576,-0.1675547957420349,-4.5610809326171875,8.377141952514648,-1.5720616579055786,-0.5736024379730225,0.025045474991202354
24985542,-0.16216911375522614,-4.602969646453857,8.325678825378418,-1.5720616579055786,-0.5736024379730225,0.025045474991202354
24986513,-0.19208961725234985,-4.605961799621582,8.408857345581055,-1.5720616579055786,-0.5736024379730225,0.025045474991202354
24987742,-0.16635797917842865,-4.535349369049072,8.389708518981934,-1.5720616579055786,-0.5736024379730225,0.025045474991202354
24988945,-0.19927053153514862,-4.503633499145508,8.459123611450195,-1.5720616579055786,-0.5736024379730225,0.025045474991202354
24990161,-0.2106403261423111,-4.574245929718018,8.456729888916016,-1.5720616579055786,-0.5736024379730225,0.025045474991202354
24991234,-0.22320693731307983,-4.5275702476501465,8.519563674926758,-1.5720616579055786,-0.5736024379730225,0.025045474991202354
24992208,-0.18610551953315735,-4.502437114715576,8.529736518859863,-1.5720616579055786,-0.5736024379730225,0.025045474991202354
24993361,-0.1513977348804474,-4.424643516540527,8.569231033325195,-1.5720616579055786,-0.5736024379730225,0.025045474991202354
24994540,-0.25851312279701233,-4.403100967407227,8.582396507263184,-1.5720616579055786,-0.5736024379730225,0.025045474991202354
24995748,-0.17413730919361115,-4.404896259307861,8.653008460998535,-1.5720616579055786,-0.5736024379730225,0.025045474991202354
24996947,-0.1813182383775711,-4.288804531097412,8.649417877197266,-1.5720616579055786,-0.5736024379730225,0.025045474991202354
24998163,-0.20226258039474487,-4.216396808624268,8.678141593933105,-1.5720616579055786,-0.5736024379730225,0.025045474991202354
24999376,-0.2363719493150711,-4.231357097625732,8.650016784667969,-1.5720616579055786,-0.5736024379730225,0.025045474991202354
25000560,-0.1633659303188324,-4.135013103485107,8.761321067810059,-1.5720616579055786,-0.5736024379730225,0.025045474991202354
25001764,-0.23158466815948486,-4.060810089111328,8.75294303894043,-1.5720616579055786,-0.5736024379730225,0.025045474991202354
25002976,-0.2046562284231186,-4.041062831878662,8.693700790405273,-1.5720616579055786,-0.5736024379730225,0.025045474991202354
25004184,-0.2812527120113373,-4.0931243896484375,8.759525299072266,-1.5720616579055786,-0.5736024379730225,0.025045474991202354
25005388,-0.25492265820503235,-4.042858123779297,8.664977073669434,-1.5720616579055786,-0.5736024379730225,0.025045474991202354
25006578,-0.29621294140815735,-4.022511959075928,8.669764518737793,-1.5720616579055786,-0.5736024379730225,0.025045474991202354
25007768,-0.0335109606385231,-4.073975563049316,8.731400489807129,-1.5720616579055786,-0.5736024379730225,0.025045474991202354
25008978,-0.11549313366413116,-4.032684803009033,8.660787582397461,-1.5720616579055786,-0.5736024379730225,0.025045474991202354
25010198,-0.1376343071460724,-4.048841953277588,8.653008460998535,-1.5720616579055786,-0.5736024379730225,0.025045474991202354
25011414,-0.14900408685207367,-4.102100372314453,8.587183952331543,-1.5720616579055786,-0.5736024379730225,0.025045474991202354
25012612,-0.13643747568130493,-4.116462230682373,8.551279067993164,-1.5720616579055786,-0.5736024379730225,0.025045474991202354
25013814,-0.2010657638311386,-4.118257522583008,8.59017562866211,-1.5720616579055786,-0.5736024379730225,0.025045474991202354
25015026,-0.22201010584831238,-4.112273693084717,8.630269050598145,-1.5720616579055786,-0.5736024379730225,0.025045474991202354
25016206,-0.22799421846866608,-4.139202117919922,8.567436218261719,-1.5720616579055786,-0.5736024379730225,0.025045474991202354
25017396,-0.2363719493150711,-4.029693126678467,8.482461929321289,-1.5720616579055786,-0.5736024379730225,0.025045474991202354
25018563,-0.21363237500190735,-4.043456554412842,8.542901039123535,-1.5720616579055786,-0.5736024379730225,0.025045474991202354
25019749,-0.2459465116262436,-4.036275386810303,8.521956443786621,-1.5720616579055786,-0.5736024379730225,0.025045474991202354
25021006,-0.2878352105617523,-3.9291601181030273,8.468698501586914,-1.5720616579055786,-0.5736024379730225,0.025045474991202354
25022208,-0.30578750371932983,-3.9064204692840576,8.469895362854004,-1.5720616579055786,-0.5736024379730225,0.025045474991202354
25023406,-0.4703502655029297,-3.9058220386505127,8.47887134552002,-1.5720616579055786,-0.5736024379730225,0.025045474991202354
25024603,-0.40871402621269226,-3.841792345046997,8.455533027648926,-1.5720616579055786,-0.5736024379730225,0.025045474991202354
25025656,-0.41409972310066223,-3.8794920444488525,8.56145191192627,-1.5720616579055786,-0.5736024379730225,0.025045474991202354
25026622,-0.5960163474082947,-3.8854761123657227,8.382527351379395,-0.29016098380088806,-0.5186246037483215,-0.30054569244384766
25027647,-0.4529963731765747,-3.8681223392486572,8.434589385986328,-0.29016098380088806,-0.5186246037483215,-0.30054569244384766
25028643,-0.48351529240608215,-3.8459811210632324,8.419629096984863,-0.29016098380088806,-0.5186246037483215,-0.30054569244384766
25029616,-0.35366031527519226,-3.8172574043273926,8.42381763458252,-0.29016098380088806,-0.5186246037483215,-0.30054569244384766
25030581,-0.2698829174041748,-3.7921242713928223,8.356795310974121,-0.29016098380088806,-0.5186246037483215,-0.30054569244384766
25031549,-0.12746132910251617,-3.8028955459594727,8.276010513305664,-0.29016098380088806,-0.5186246037483215,-0.30054569244384766
25032518,0.05146326124668121,-3.8884682655334473,8.358591079711914,-0.29016098380088806,-0.5186246037483215,-0.30054569244384766
25033693,-0.09215514361858368,-3.870515823364258,8.356795310974121,-0.29016098380088806,-0.5186246037483215,-0.30054569244384766
25034874,-0.0807853490114212,-4.073975563049316,8.267034530639648,-0.29016098380088806,-0.5186246037483215,-0.30054569244384766
25036084,-0.17593254148960114,-4.171515941619873,8.31490707397461,-0.29016098380088806,-0.5186246037483215,-0.30054569244384766
25037283,-0.04547915980219841,-4.273245811462402,8.429203033447266,-0.29016098380088806,-0.5186246037483215,-0.30054569244384766
25038475,0.28244951367378235,-4.242726802825928,8.430399894714355,-0.29016098380088806,-0.5186246037483215,-0.30054569244384766
25039685,0.2285926192998886,-4.275041103363037,8.362181663513184,-0.29016098380088806,-0.5186246037483215,-0.30054569244384766
25040888,0.23756876587867737,-4.409084796905518,8.311915397644043,-0.29016098380088806,-0.5186246037483215,-0.30054569244384766
25042094,0.4021315276622772,-4.525176525115967,8.310718536376953,-0.29016098380088806,-0.5186246037483215,-0.30054569244384766
25043295,0.4529963731765747,-4.663409233093262,8.396889686584473,-0.29016098380088806,-0.5186246037483215,-0.30054569244384766
25044489,0.5481435656547546,-4.7340216636657715,8.293364524841309,-0.29016098380088806,-0.5186246037483215,-0.30054569244384766
25045705,0.6618414521217346,-4.771122932434082,8.445959091186523,-0.29016098380088806,-0.5186246037483215,-0.30054569244384766
25046888,0.5421594381332397,-4.970992088317871,8.466902732849121,-0.29016098380088806,-0.5186246037483215,-0.30054569244384766
25048105,0.5804576873779297,-5.017667770385742,8.523153305053711,-0.29016098380088806,-0.5186246037483215,-0.30054569244384766
25049307,0.4386345446109772,-5.096658229827881,8.557861328125,-0.29016098380088806,-0.5186246037483215,-0.30054569244384766
25050517,0.5810561180114746,-5.166073799133301,8.609923362731934,-0.29016098380088806,-0.5186246037483215,-0.30054569244384766
25051735,0.6468812227249146,-5.234292507171631,8.662583351135254,-0.29016098380088806,-0.5186246037483215,-0.30054569244384766
25052933,0.6738096475601196,-5.249851226806641,8.779871940612793,-0.29016098380088806,-0.5186246037483215,-0.30054569244384766
25054141,0.6385034918785095,-5.310290336608887,8.733794212341309,-0.29016098380088806,-0.5186246037483215,-0.30054569244384766
25055337,0.5966147780418396,-5.403043746948242,8.879806518554688,-0.29016098380088806,-0.5186246037483215,-0.30054569244384766
25056523,0.5463483333587646,-5.495199203491211,8.852877616882324,-0.29016098380088806,-0.5186246037483215,-0.30054569244384766
25057745,0.6845810413360596,-5.430570602416992,8.985126495361328,-0.29016098380088806,-0.5186246037483215,-0.30054569244384766
25058946,0.7133046984672546,-5.468270778656006,9.046164512634277,-0.29016098380088806,-0.5186246037483215,-0.30054569244384766
25060149,0.6546605229377747,-5.461688041687012,9.05693531036377,-0.29016098380088806,-0.5186246037483215,-0.30054569244384766
25061345,0.6785969734191895,-5.519733905792236,9.0318021774292,-0.29016098380088806,-0.5186246037483215,-0.30054569244384766
25062531,0.5319864749908447,-5.477845191955566,9.198759078979492,-0.29016098380088806,-0.5186246037483215,-0.30054569244384766
25063731,0.48291686177253723,-5.4431376457214355,9.18858528137207,-0.29016098380088806,-0.5186246037483215,-0.30054569244384766
25064928,0.46137410402297974,-5.476049900054932,9.219104766845703,-0.29016098380088806,-0.5186246037483215,-0.30054569244384766
25066134,0.47753119468688965,-5.439547061920166,9.295701026916504,-0.29016098380088806,-0.5186246037483215,-0.30054569244384766
25067340,0.46197253465652466,-5.426382064819336,9.290913581848145,-0.29016098380088806,-0.5186246037483215,-0.30054569244384766
25068531,0.42666634917259216,-5.349785327911377,9.3621244430542,-0.29016098380088806,-0.5186246037483215,-0.30054569244384766
25069748,0.33151915669441223,-5.328841209411621,9.452484130859375,-0.29016098380088806,-0.5186246037483215,-0.30054569244384766
25070933,0.3704158067703247,-5.351580619812012,9.458468437194824,-0.29016098380088806,-0.5186246037483215,-0.30054569244384766
25072144,0.3446841537952423,-5.326447486877441,9.548828125,-0.29016098380088806,-0.5186246037483215,-0.30054569244384766
25073196,0.3129684329032898,-5.283960342407227,9.594905853271484,-0.29016098380088806,-0.5186246037483215,-0.30054569244384766
25074177,0.3010002374649048,-5.315676212310791,9.606874465942383,-0.29016098380088806,-0.5186246037483215,-0.30054569244384766
25075138,0.3069843351840973,-5.304904937744141,9.594307899475098,-0.29016098380088806,-0.5186246037483215,-0.30054569244384766
25076111,0.32373982667922974,-5.285755634307861,9.612259864807129,-0.29016098380088806,-0.5186246037483215,-0.30054569244384766
25077095,0.33151915669441223,-5.370131492614746,9.667912483215332,-0.29016098380088806,-0.5186246037483215,-0.30054569244384766
25078323,0.31775569915771484,-5.361753463745117,9.650558471679688,-0.29016098380088806,-0.5186246037483215,-0.30054569244384766
25079530,0.3506682515144348,-5.352777481079102,9.578150749206543,-0.29016098380088806,-0.5186246037483215,-0.30054569244384766
25080712,0.3997378945350647,-5.3809027671813965,9.623629570007324,-0.29016098380088806,-0.5186246037483215,-0.30054569244384766
25081890,0.3602428138256073,-5.439547061920166,9.595504760742188,-0.29016098380088806,-0.5186246037483215,-0.30054569244384766
25083099,0.4135013222694397,-5.471262454986572,9.541647911071777,-0.29016098380088806,-0.5186246037483215,-0.30054569244384766
25084299,0.4015331268310547,-5.487419605255127,9.513522148132324,-0.29016098380088806,-0.5186246037483215,-0.30054569244384766
25085365,0.3500698506832123,-5.535292625427246,9.575757026672363,-0.29016098380088806,-0.5186246037483215,-0.30054569244384766
25086340,0.4374377131462097,-5.571795463562012,9.588323593139648,-0.29016098380088806,-0.5186246037483215,-0.30054569244384766
25087316,0.44581544399261475,-5.598723888397217,9.567977905273438,-0.29016098380088806,-0.5186246037483215,-0.30054569244384766
25088287,0.3704158067703247,-5.627447605133057,9.60866928100586,-0.29016098380088806,-0.5186246037483215,-0.30054569244384766
25089266,0.3853760361671448,-5.7046427726745605,9.560796737670898,-0.29016098380088806,-0.5186246037483215,-0.30054569244384766
25090500,0.5236087441444397,-5.703445911407471,9.49138069152832,-0.29016098380088806,-0.5186246037483215,-0.30054569244384766
25091686,0.3937537968158722,-5.678910732269287,9.477617263793945,-0.29016098380088806,-0.5186246037483215,-0.30054569244384766
25092872,0.4057219922542572,-5.7112250328063965,9.563190460205078,-0.29016098380088806,-0.5186246037483215,-0.30054569244384766
25093944,0.4529963731765747,-5.754310607910156,9.559001922607422,-0.29016098380088806,-0.5186246037483215,-0.30054569244384766
25094913,0.45359477400779724,-5.722594738006592,9.49856185913086,-0.29016098380088806,-0.5186246037483215,-0.30054569244384766
25096153,0.43444567918777466,-5.830906867980957,9.57755184173584,-0.29016098380088806,-0.5186246037483215,-0.30054569244384766
25097359,0.4428234100341797,-5.782435894012451,9.593111038208008,-0.29016098380088806,-0.5186246037483215,-0.30054569244384766
25098556,0.3937537968158722,-5.774656772613525,9.576953887939453,-0.29016098380088806,-0.5186246037483215,-0.30054569244384766
25099748,0.43983134627342224,-5.7602949142456055,9.571568489074707,-0.29016098380088806,-0.5186246037483215,-0.30054569244384766
25100921,0.3087795674800873,-5.780640602111816,9.654747009277344,-0.29016098380088806,-0.5186246037483215,-0.30054569244384766
25102143,0.40632039308547974,-5.7459330558776855,9.621834754943848,-0.29016098380088806,-0.5186246037483215,-0.30054569244384766
25103361,0.44761067628860474,-5.747129917144775,9.7139892578125,-0.29016098380088806,-0.5186246037483215,-0.30054569244384766
25104554,0.4093124568462372,-5.672328472137451,9.538057327270508,-0.711963415145874,-0.7476990818977356,-0.08888088911771774
25105736,0.5242071747779846,-5.660958766937256,9.661928176879883,-0.711963415145874,-0.7476990818977356,-0.08888088911771774
25106926,0.46137410402297974,-5.604109764099121,9.730146408081055,-0.711963415145874,-0.7476990818977356,-0.08888088911771774
25108147,0.4883025586605072,-5.574787616729736,9.730745315551758,-0.711963415145874,-0.7476990818977356,-0.08888088911771774
25109350,0.49488508701324463,-5.592141628265381,9.679282188415527,-0.711963415145874,-0.7476990818977356,-0.08888088911771774
25110537,0.5200182795524597,-5.571795463562012,9.788192749023438,-0.711963415145874,-0.7476990818977356,-0.08888088911771774
25111726,0.5768672227859497,-5.505372047424316,9.799562454223633,-0.711963415145874,-0.7476990818977356,-0.08888088911771774
25112920,0.5906306505203247,-5.468869209289551,9.894709587097168,-0.711963415145874,-0.7476990818977356,-0.08888088911771774
25114138,0.6193543672561646,-5.438948631286621,9.88513469696045,-0.711963415145874,-0.7476990818977356,-0.08888088911771774
25115351,0.6073861718177795,-5.388681888580322,9.868977546691895,-0.711963415145874,-0.7476990818977356,-0.08888088911771774
25116535,0.6809905767440796,-5.225316047668457,9.93300724029541,-0.711963415145874,-0.7476990818977356,-0.08888088911771774
25117722,0.6660303473472595,-5.242071628570557,10.088594436645508,-0.711963415145874,-0.7476990818977356,-0.08888088911771774
25118909,0.6708176136016846,-5.179837226867676,9.942582130432129,-0.711963415145874,-0.7476990818977356,-0.08888088911771774
25120133,0.7713505029678345,-5.073918342590332,10.028155326843262,-0.711963415145874,-0.7476990818977356,-0.08888088911771774
25121360,0.8742769956588745,-5.100248336791992,10.062264442443848,-0.711963415145874,-0.7476990818977356,-0.08888088911771774
25122537,0.8365771770477295,-5.105035781860352,9.991053581237793,-0.711963415145874,-0.7476990818977356,-0.08888088911771774
25123780,0.8736786246299744,-5.002109050750732,10.02037525177002,-0.711963415145874,-0.7476990818977356,-0.08888088911771774
25124981,0.8329867124557495,-5.005699634552002,10.026359558105469,-0.711963415145874,-0.7476990818977356,-0.08888088911771774
25126201,0.8820563554763794,-4.796256065368652,10.119112968444824,-0.711963415145874,-0.7476990818977356,-0.08888088911771774
25127416,0.8156328201293945,-4.877041339874268,10.099365234375,-0.711963415145874,-0.7476990818977356,-0.08888088911771774
25128489,0.8192232847213745,-4.920725345611572,10.138860702514648,-0.711963415145874,-0.7476990818977356,-0.08888088911771774
25129463,0.7821218967437744,-4.826176643371582,10.117916107177734,-0.711963415145874,-0.7476990818977356,-0.08888088911771774
25130721,0.8569231033325195,-4.818995952606201,10.199898719787598,-0.711963415145874,-0.7476990818977356,-0.08888088911771774
25131756,0.8976150155067444,-4.842333793640137,10.223834991455078,-0.711963415145874,-0.7476990818977356,-0.08888088911771774
25132718,0.8784658908843994,-4.794460773468018,10.293848991394043,-0.711963415145874,-0.7476990818977356,-0.08888088911771774
25133682,0.8754738569259644,-4.688542366027832,10.244180679321289,-0.711963415145874,-0.7476990818977356,-0.08888088911771774
25134645,0.9706210494041443,-4.626307964324951,10.238795280456543,-0.711963415145874,-0.7476990818977356,-0.08888088911771774
25135608,0.9514719247817993,-4.576639652252197,10.246574401855469,-0.711963415145874,-0.7476990818977356,-0.08888088911771774
25136570,1.0053287744522095,-4.529963970184326,10.260337829589844,-0.711963415145874,-0.7476990818977356,-0.08888088911771774
25137536,1.0693587064743042,-4.461744785308838,10.205883026123047,-0.711963415145874,-0.7476990818977356,-0.08888088911771774
25138697,1.0956887006759644,-4.482090950012207,10.096373558044434,-0.711963415145874,-0.7476990818977356,-0.08888088911771774
25139847,1.1142394542694092,-4.425241947174072,10.084405899047852,-0.711963415145874,-0.7476990818977356,-0.08888088911771774
25141036,1.1004760265350342,-4.4449896812438965,10.1328763961792,-0.711963415145874,-0.7476990818977356,-0.08888088911771774
25142236,1.1268060207366943,-4.398313522338867,10.069445610046387,-0.711963415145874,-0.7476990818977356,-0.08888088911771774
25143421,1.1615138053894043,-4.374377250671387,10.04790210723877,-0.711963415145874,-0.7476990818977356,-0.08888088911771774
25144603,1.046020746231079,-4.364802360534668,9.913260459899902,-0.711963415145874,-0.7476990818977356,-0.08888088911771774
25145769,1.0119112730026245,-4.356424808502197,9.956944465637207,-0.711963415145874,-0.7476990818977356,-0.08888088911771774
25146959,1.0244779586791992,-4.397116661071777,9.977888107299805,-0.711963415145874,-0.7476990818977356,-0.08888088911771774
25148148,1.0813268423080444,-4.353432655334473,9.928818702697754,-0.711963415145874,-0.7476990818977356,-0.08888088911771774
25149340,1.0220842361450195,-4.345055103302002,9.930015563964844,-0.711963415145874,-0.7476990818977356,-0.08888088911771774
25150523,0.9317243695259094,-4.2798285484313965,9.870773315429688,-0.711963415145874,-0.7476990818977356,-0.08888088911771774
25151709,0.8383724093437195,-4.243325233459473,9.838459014892578,-0.711963415145874,-0.7476990818977356,-0.08888088911771774
25152889,0.8904340863227844,-4.138603687286377,9.803153038024902,-0.711963415145874,-0.7476990818977356,-0.08888088911771774
25154089,0.9472830295562744,-4.188869953155518,9.785799026489258,-0.711963415145874,-0.7476990818977356,-0.08888088911771774
25155303,0.8952213525772095,-4.223577976226807,9.731942176818848,-0.711963415145874,-0.7476990818977356,-0.08888088911771774
25156498,0.9215514063835144,-4.243923664093018,9.736729621887207,-0.711963415145874,-0.7476990818977356,-0.08888088911771774
25157677,0.8784658908843994,-4.200838088989258,9.752885818481445,-0.711963415145874,-0.7476990818977356,-0.08888088911771774
25158857,0.9915654063224792,-4.242128372192383,9.816916465759277,-0.711963415145874,-0.7476990818977356,-0.08888088911771774
25160068,1.0436270236968994,-4.209216117858887,9.737926483154297,-0.711963415145874,-0.7476990818977356,-0.08888088911771774
25161268,0.8473485708236694,-4.149374961853027,9.7139892578125,-0.711963415145874,-0.7476990818977356,-0.08888088911771774
25162458,0.9454877972602844,-4.087738990783691,9.640385627746582,-0.711963415145874,-0.7476990818977356,-0.08888088911771774
25163647,0.9843844771385193,-4.129029273986816,9.591914176940918,-0.711963415145874,-0.7476990818977356,-0.08888088911771774
25164824,0.8617104291915894,-4.206223964691162,9.529679298400879,-0.711963415145874,-0.7476990818977356,-0.08888088911771774
25166009,1.0526032447814941,-4.441997528076172,9.505144119262695,-0.711963415145874,-0.7476990818977356,-0.08888088911771774
25167195,1.325478196144104,-4.382754802703857,9.10361099243164,-0.711963415145874,-0.7476990818977356,-0.08888088911771774
25168364,3.2326109409332275,-4.786083221435547,7.56450080871582,-0.711963415145874,-0.7476990818977356,-0.08888088911771774
25169547,1.3960905075073242,-4.796854496002197,9.700225830078125,-0.711963415145874,-0.7476990818977356,-0.08888088911771774
25170724,2.521101474761963,-6.0553107261657715,8.00133991241455,-0.711963415145874,-0.7476990818977356,-0.08888088911771774
25171905,0.5738751888275146,-5.269598484039307,10.198701858520508,-0.711963415145874,-0.7476990818977356,-0.08888088911771774
25173097,1.246488094329834,-6.229448318481445,9.457271575927734,-0.711963415145874,-0.7476990818977356,-0.08888088911771774
25174281,1.646225929260254,-5.576582908630371,9.651755332946777,-0.711963415145874,-0.7476990818977356,-0.08888088911771774
25175324,-0.30459070205688477,-4.435414791107178,10.694185256958008,-0.711963415145874,-0.7476990818977356,-0.08888088911771774
25176306,-0.31356683373451233,-4.646055221557617,9.289716720581055,-0.711963415145874,-0.7476990818977356,-0.08888088911771774
25177272,-0.07420284301042557,-4.165532112121582,9.232868194580078,-0.711963415145874,-0.7476990818977356,-0.08888088911771774
25178235,-0.29262250661849976,-3.4510304927825928,9.472830772399902,-0.711963415145874,-0.7476990818977356,-0.08888088911771774
25179198,-0.3015986382961273,-3.7280943393707275,8.653607368469238,-0.711963415145874,-0.7476990818977356,-0.08888088911771774
25180452,-0.06343146413564682,-4.099707126617432,8.086913108825684,-0.711963415145874,-0.7476990818977356,-0.08888088911771774
25181639,2.574958324432373,-4.629299640655518,7.764968395233154,-0.2874121069908142,-0.46547931432724,0.06261368840932846
25182817,1.769498348236084,-5.7525153160095215,7.699142932891846,-0.2874121069908142,-0.46547931432724,0.06261368840932846
25184003,1.6809337139129639,-6.453253746032715,7.785314083099365,-0.2874121069908142,-0.46547931432724,0.06261368840932846
25185203,0.5002707839012146,-5.635227203369141,8.930072784423828,-0.2874121069908142,-0.46547931432724,0.06261368840932846
25186288,0.4805232286453247,-5.509561061859131,8.709259033203125,-0.2874121069908142,-0.46547931432724,0.06261368840932846
25187446,0.15438978374004364,-5.570000171661377,8.5028076171875,-0.2874121069908142,-0.46547931432724,0.06261368840932846
25188529,-0.37520307302474976,-4.704699516296387,8.746360778808594,-0.2874121069908142,-0.46547931432724,0.06261368840932846
25189510,-0.3602428138256073,-4.365999221801758,8.647024154663086,-0.2874121069908142,-0.46547931432724,0.06261368840932846
25190469,-0.6642351150512695,-4.491665363311768,8.299946784973145,-0.2874121069908142,-0.46547931432724,0.06261368840932846
25191431,-0.6618414521217346,-4.502437114715576,8.656001091003418,-0.2874121069908142,-0.46547931432724,0.06261368840932846
25192398,-1.624683141708374,-3.4540226459503174,9.658935546875,-0.2874121069908142,-0.46547931432724,0.06261368840932846
25193631,-1.1621122360229492,-3.2194459438323975,8.528539657592773,-0.2874121069908142,-0.46547931432724,0.06261368840932846
25194833,-1.2171659469604492,-2.850825309753418,8.762517929077148,-0.2874121069908142,-0.46547931432724,0.06261368840932846
25196019,-0.8551278710365295,-2.7311432361602783,8.316701889038086,-0.2874121069908142,-0.46547931432724,0.06261368840932846
25197069,-0.6486764550209045,-3.497107982635498,7.4531965255737305,-0.2874121069908142,-0.46547931432724,0.06261368840932846
25198255,-0.4374377131462097,-4.025504112243652,7.589633941650391,-0.2874121069908142,-0.46547931432724,0.06261368840932846
25199554,-0.3015986382961273,-4.700510501861572,8.136580467224121,-0.2874121069908142,-0.46547931432724,0.06261368840932846
25200756,0.05146326124668121,-5.618471622467041,7.717095375061035,-0.2874121069908142,-0.46547931432724,0.06261368840932846
25201918,0.3093779683113098,-5.599322319030762,7.89841365814209,-0.2874121069908142,-0.46547931432724,0.06261368840932846
25203105,0.6534637212753296,-5.767475605010986,7.49987268447876,-0.2874121069908142,-0.46547931432724,0.06261368840932846
25204281,0.9281339049339294,-6.329980850219727,6.79494571685791,-0.2874121069908142,-0.46547931432724,0.06261368840932846
25205590,2.0477590560913086,-6.666287422180176,6.598667144775391,-0.2874121069908142,-0.46547931432724,0.06261368840932846
25206809,1.3452256917953491,-7.014562129974365,7.2748703956604,-0.2874121069908142,-0.46547931432724,0.06261368840932846
25207978,0.9041975140571594,-7.212037563323975,7.275468826293945,-0.2874121069908142,-0.46547931432724,0.06261368840932846
25209127,0.6678255796432495,-6.538227558135986,7.764968395233154,-0.2874121069908142,-0.46547931432724,0.06261368840932846
25210331,0.5236087441444397,-5.9254560470581055,7.885847091674805,-0.2874121069908142,-0.46547931432724,0.06261368840932846
25211521,0.5295928716659546,-5.659761905670166,7.362836837768555,-0.2874121069908142,-0.46547931432724,0.06261368840932846
25212706,0.28304794430732727,-5.054769515991211,7.669222831726074,-0.2874121069908142,-0.46547931432724,0.06261368840932846
25213867,0.30818116664886475,-4.5748443603515625,7.63631010055542,-0.2874121069908142,-0.46547931432724,0.06261368840932846
25215045,0.08916308730840683,-4.536546230316162,7.341892242431641,-0.2874121069908142,-0.46547931432724,0.06261368840932846
25216241,0.06821873784065247,-4.103895664215088,7.913373947143555,-0.2874121069908142,-0.46547931432724,0.06261368840932846
25217428,0.07839170843362808,-3.9961819648742676,7.92474365234375,-0.2874121069908142,-0.46547931432724,0.06261368840932846
25218604,0.07061237841844559,-4.060211658477783,7.685977935791016,-0.2874121069908142,-0.46547931432724,0.06261368840932846
25219775,0.17473572492599487,-3.8106749057769775,7.8660993576049805,-0.2874121069908142,-0.46547931432724,0.06261368840932846
25220973,0.17294049263000488,-3.924372911453247,7.688371658325195,-0.2874121069908142,-0.46547931432724,0.06261368840932846
25222170,0.31596049666404724,-4.135611534118652,7.461574554443359,-0.2874121069908142,-0.46547931432724,0.06261368840932846
25223372,0.32194459438323975,-4.170917510986328,7.709316253662109,-0.2874121069908142,-0.46547931432724,0.06261368840932846
25224554,0.4039267599582672,-4.359416961669922,7.58125638961792,-0.2874121069908142,-0.46547931432724,0.06261368840932846
25225816,0.4332488477230072,-4.571852684020996,7.45798397064209,-0.2874121069908142,-0.46547931432724,0.06261368840932846
25227011,0.38717126846313477,-4.632291793823242,7.563902378082275,-0.2874121069908142,-0.46547931432724,0.06261368840932846
25228223,0.5637022256851196,-4.839341640472412,7.449605941772461,-0.2874121069908142,-0.46547931432724,0.06261368840932846
25229435,1.0292651653289795,-5.114610195159912,7.2533278465271,-0.2874121069908142,-0.46547931432724,0.06261368840932846
25230490,1.225543737411499,-5.335423469543457,8.0408353805542,-0.2874121069908142,-0.46547931432724,0.06261368840932846
25231462,0.8174280524253845,-4.677771091461182,7.758984088897705,-0.2874121069908142,-0.46547931432724,0.06261368840932846
25232462,0.6229448318481445,-4.520389080047607,7.511242389678955,-0.2874121069908142,-0.46547931432724,0.06261368840932846
25233462,0.5768672227859497,-4.704699516296387,7.5076518058776855,-0.2874121069908142,-0.46547931432724,0.06261368840932846
25234431,0.5876386165618896,-4.552104949951172,7.630325794219971,-0.2874121069908142,-0.46547931432724,0.06261368840932846
25235401,0.8252074122428894,-4.5000433921813965,7.533981800079346,-0.2874121069908142,-0.46547931432724,0.06261368840932846
25236362,0.7276665568351746,-4.446784973144531,7.641097545623779,-0.2874121069908142,-0.46547931432724,0.06261368840932846
25237336,0.6528652906417847,-4.338472366333008,7.702733516693115,-0.2874121069908142,-0.46547931432724,0.06261368840932846
25238307,0.6295273303985596,-4.237341403961182,7.788904666900635,-0.2874121069908142,-0.46547931432724,0.06261368840932846
25239273,1.0107145309448242,-4.077565670013428,7.591429233551025,-0.2874121069908142,-0.46547931432724,0.06261368840932846
25240238,1.0603824853897095,-4.012339115142822,7.46875524520874,-0.2874121069908142,-0.46547931432724,0.06261368840932846
25241610,1.0119112730026245,-4.080557823181152,7.323940277099609,-0.2874121069908142,-0.46547931432724,0.06261368840932846
25242743,0.9371100664138794,-4.206223964691162,7.420284271240234,-0.2874121069908142,-0.46547931432724,0.06261368840932846
25243923,0.8934261202812195,-4.270253658294678,7.44362211227417,-0.2874121069908142,-0.46547931432724,0.06261368840932846
25245131,0.8658992648124695,-4.1834845542907715,7.58125638961792,-0.2874121069908142,-0.46547931432724,0.06261368840932846
25246307,0.8228137493133545,-4.358220100402832,7.55372953414917,-0.2874121069908142,-0.46547931432724,0.06261368840932846
25247510,0.8617104291915894,-4.413273811340332,7.768558502197266,-0.2874121069908142,-0.46547931432724,0.06261368840932846
25248679,1.111845850944519,-4.413273811340332,7.846950531005859,-0.2874121069908142,-0.46547931432724,0.06261368840932846
25249864,1.0190922021865845,-4.4647369384765625,7.786510944366455,-0.2874121069908142,-0.46547931432724,0.06261368840932846
25251073,1.0561937093734741,-4.446186542510986,7.894224643707275,-0.2874121069908142,-0.46547931432724,0.06261368840932846
25252277,0.8629072308540344,-4.297780513763428,7.924145221710205,-0.2874121069908142,-0.46547931432724,0.06261368840932846
25253455,0.7743425369262695,-4.270253658294678,7.92594051361084,-0.2874121069908142,-0.46547931432724,0.06261368840932846
25254642,0.6199527382850647,-4.199042797088623,8.053401947021484,-0.2874121069908142,-0.46547931432724,0.06261368840932846
25255800,0.9000086784362793,-4.173909664154053,7.918161392211914,-0.2874121069908142,-0.46547931432724,0.06261368840932846
25257006,1.0795316696166992,-4.251703262329102,8.00493049621582,-0.2874121069908142,-0.46547931432724,0.06261368840932846
25258200,0.9514719247817993,-4.2523016929626465,7.971419811248779,-0.2874121069908142,-0.46547931432724,0.06261368840932846
25259394,1.0310604572296143,-4.306158542633057,8.045622825622559,0.4092797040939331,0.31001409888267517,0.26083946228027344
25260561,0.9706210494041443,-4.3073554039001465,8.104865074157715,0.4092797040939331,0.31001409888267517,0.26083946228027344
25261733,0.9167641401290894,-4.161343097686768,8.122817039489746,0.4092797040939331,0.31001409888267517,0.26083946228027344
25262916,1.0543984174728394,-4.3073554039001465,7.9702229499816895,0.4092797040939331,0.31001409888267517,0.26083946228027344
25264112,1.0849173069000244,-4.310945510864258,8.08990478515625,0.4092797040939331,0.31001409888267517,0.26083946228027344
25265287,1.0825237035751343,-4.343259811401367,7.995954513549805,0.4092797040939331,0.31001409888267517,0.26083946228027344
25266471,1.1639074087142944,-4.331291675567627,8.021087646484375,0.4092797040939331,0.31001409888267517,0.26083946228027344
25267657,1.0262731313705444,-4.346251964569092,8.134785652160645,0.4092797040939331,0.31001409888267517,0.26083946228027344
25268854,0.9305275678634644,-4.365999221801758,8.20001220703125,0.4092797040939331,0.31001409888267517,0.26083946228027344
25270047,0.9227482080459595,-4.349842548370361,8.212578773498535,0.4092797040939331,0.31001409888267517,0.26083946228027344
25271232,0.8383724093437195,-4.3408660888671875,8.277207374572754,0.4092797040939331,0.31001409888267517,0.26083946228027344
25272426,0.7300602197647095,-4.428832530975342,8.325079917907715,0.4092797040939331,0.31001409888267517,0.26083946228027344
25273614,0.8102471232414246,-4.457556247711182,8.293364524841309,0.4092797040939331,0.31001409888267517,0.26083946228027344
25274810,0.5960163474082947,-4.449776649475098,8.34363079071045,0.4092797040939331,0.31001409888267517,0.26083946228027344
25275991,0.5487419962882996,-4.501838684082031,8.420825958251953,0.4092797040939331,0.31001409888267517,0.26083946228027344
25277163,0.44820910692214966,-4.465335369110107,8.356795310974121,0.4092797040939331,0.31001409888267517,0.26083946228027344
25278220,0.47573596239089966,-4.456957817077637,8.469895362854004,0.4092797040939331,0.31001409888267517,0.26083946228027344
25279195,0.33151915669441223,-4.522782802581787,8.558460235595703,0.4092797040939331,0.31001409888267517,0.26083946228027344
25280167,0.29681137204170227,-4.554498672485352,8.583593368530273,0.4092797040939331,0.31001409888267517,0.26083946228027344
25281137,0.14900408685207367,-4.661015510559082,8.490241050720215,0.4092797040939331,0.31001409888267517,0.26083946228027344
25282277,0.4314536154270172,-4.843530654907227,8.556066513061523,0.4092797040939331,0.31001409888267517,0.26083946228027344
25283464,0.7551934123039246,-5.064942359924316,8.4692964553833,0.4092797040939331,0.31001409888267517,0.26083946228027344
25284659,0.6552589535713196,-5.240276336669922,8.69190502166748,0.4092797040939331,0.31001409888267517,0.26083946228027344
25285842,0.13284702599048615,-5.135554790496826,8.803808212280273,0.4092797040939331,0.31001409888267517,0.26083946228027344
25287047,-0.07061237841844559,-5.267204761505127,8.855271339416504,0.4092797040939331,0.31001409888267517,0.26083946228027344
25288241,-0.02932208962738514,-5.180435657501221,8.790642738342285,0.4092797040939331,0.31001409888267517,0.26083946228027344
25289398,0.21004191040992737,-5.319266319274902,8.86424732208252,0.4092797040939331,0.31001409888267517,0.26083946228027344
25290449,0.2800558805465698,-5.404839038848877,8.88219928741455,0.4092797040939331,0.31001409888267517,0.26083946228027344
25291416,0.3961474299430847,-5.515544891357422,8.786454200744629,0.4092797040939331,0.31001409888267517,0.26083946228027344
25292368,0.5014675855636597,-5.599920749664307,8.807398796081543,0.4092797040939331,0.31001409888267517,0.26083946228027344
25293337,0.5062548518180847,-5.659761905670166,8.86305046081543,0.4092797040939331,0.31001409888267517,0.26083946228027344
25294622,0.4021315276622772,-5.777648448944092,9.013850212097168,0.4092797040939331,0.31001409888267517,0.26083946228027344
25295810,0.33391278982162476,-5.751916885375977,9.1419095993042,0.4092797040939331,0.31001409888267517,0.26083946228027344
25296997,0.3387000560760498,-5.749523162841797,9.196365356445312,0.4092797040939331,0.31001409888267517,0.26083946228027344
25298163,0.40632039308547974,-5.666942596435547,9.13472843170166,0.4092797040939331,0.31001409888267517,0.26083946228027344
25299363,0.4703502655029297,-5.785428047180176,9.155673027038574,0.4092797040939331,0.31001409888267517,0.26083946228027344
25300616,0.46915343403816223,-5.797994613647461,9.21611213684082,0.4092797040939331,0.31001409888267517,0.26083946228027344
25301788,0.32194459438323975,-5.8350958824157715,9.286725044250488,0.4092797040939331,0.31001409888267517,0.26083946228027344
25302957,0.3488730192184448,-5.816545486450195,9.30467700958252,0.4092797040939331,0.31001409888267517,0.26083946228027344
25304158,0.33570802211761475,-5.7459330558776855,9.430941581726074,0.4092797040939331,0.31001409888267517,0.26083946228027344
25305366,0.36742374300956726,-5.819537162780762,9.440516471862793,0.4092797040939331,0.31001409888267517,0.26083946228027344
25306552,0.28603997826576233,-5.808167457580566,9.401619911193848,0.4092797040939331,0.31001409888267517,0.26083946228027344
25307719,0.3763999044895172,-5.759098052978516,9.438720703125,0.4092797040939331,0.31001409888267517,0.26083946228027344
25308900,0.14541363716125488,-5.765081882476807,9.474027633666992,0.4092797040939331,0.31001409888267517,0.26083946228027344
25310107,0.12267404794692993,-5.803380012512207,9.469240188598633,0.4092797040939331,0.31001409888267517,0.26083946228027344
25311286,0.17234207689762115,-5.671730041503906,9.670305252075195,0.4092797040939331,0.31001409888267517,0.26083946228027344
25312473,0.11369790136814117,-5.620865345001221,9.63260555267334,0.4092797040939331,0.31001409888267517,0.26083946228027344
25313653,0.27646541595458984,-5.570598602294922,9.647565841674805,0.4092797040939331,0.31001409888267517,0.26083946228027344
25314845,0.33810165524482727,-5.566410064697266,9.459067344665527,0.4092797040939331,0.31001409888267517,0.26083946228027344
25316038,0.30638593435287476,-5.6226606369018555,9.392045021057129,0.4092797040939331,0.31001409888267517,0.26083946228027344
25317236,0.32014936208724976,-5.693272590637207,9.389053344726562,0.4092797040939331,0.31001409888267517,0.26083946228027344
25318418,0.48949939012527466,-5.7190046310424805,9.41358757019043,0.4092797040939331,0.31001409888267517,0.26083946228027344
25319605,0.6462827920913696,-5.805175304412842,9.438720703125,0.4092797040939331,0.31001409888267517,0.26083946228027344
25320789,0.6618414521217346,-5.8434739112854,9.458468437194824,0.4092797040939331,0.31001409888267517,0.26083946228027344
25321997,0.7749409675598145,-5.941014766693115,9.353148460388184,0.4092797040939331,0.31001409888267517,0.26083946228027344
25323187,0.9658337235450745,-5.95477819442749,9.26996898651123,0.4092797040939331,0.31001409888267517,0.26083946228027344
25324363,1.135782241821289,-6.00983190536499,9.21371841430664,0.4092797040939331,0.31001409888267517,0.26083946228027344
25325553,1.163309097290039,-6.045736312866211,9.19337272644043,0.4092797040939331,0.31001409888267517,0.26083946228027344
25326742,1.0789332389831543,-6.015815734863281,9.149090766906738,0.4092797040939331,0.31001409888267517,0.26083946228027344
25327950,1.0579888820648193,-6.067877292633057,9.196365356445312,0.4092797040939331,0.31001409888267517,0.26083946228027344
25329176,1.0017383098602295,-6.015217304229736,9.102415084838867,0.4092797040939331,0.31001409888267517,0.26083946228027344
25330364,0.8964182138442993,-5.858434200286865,9.200553894042969,0.4092797040939331,0.31001409888267517,0.26083946228027344
25331551,0.7432252168655396,-5.945801734924316,9.116178512573242,0.4092797040939331,0.31001409888267517,0.26083946228027344
25332601,0.6127718687057495,-5.888354301452637,9.141311645507812,0.4092797040939331,0.31001409888267517,0.26083946228027344
25333568,0.3668253421783447,-5.779443740844727,9.210128784179688,0.4092797040939331,0.31001409888267517,0.26083946228027344
25334574,0.22081328928470612,-5.803380012512207,9.22209644317627,0.4092797040939331,0.31001409888267517,0.26083946228027344
25335573,0.12446928024291992,-5.813553333282471,9.319039344787598,0.4092797040939331,0.31001409888267517,0.26083946228027344
25336542,0.2064514458179474,-5.693272590637207,9.322031021118164,-0.6566801071166992,-0.44318273663520813,-0.1059851199388504
25337507,0.18969596922397614,-5.684296607971191,9.24842643737793,-0.6566801071166992,-0.44318273663520813,-0.1059851199388504
25338470,0.11788677424192429,-5.652580738067627,9.16584587097168,-0.6566801071166992,-0.44318273663520813,-0.1059851199388504
25339435,0.1849086880683899,-5.648392200469971,9.091643333435059,-0.6566801071166992,-0.44318273663520813,-0.1059851199388504
25340403,0.23756876587867737,-5.602912902832031,9.082667350769043,-0.6566801071166992,-0.44318273663520813,-0.1059851199388504
25341364,0.1340438425540924,-5.675919055938721,9.122760772705078,-0.6566801071166992,-0.44318273663520813,-0.1059851199388504
25342680,0.1873023360967636,-5.6639509201049805,9.184995651245117,-0.6566801071166992,-0.44318273663520813,-0.1059851199388504
25343880,0.28843361139297485,-5.72020149230957,9.128745079040527,-0.6566801071166992,-0.44318273663520813,-0.1059851199388504
25345074,0.2752686142921448,-5.720799446105957,9.13951587677002,-0.6566801071166992,-0.44318273663520813,-0.1059851199388504
25346256,0.45778366923332214,-5.733964920043945,9.058731079101562,-0.6566801071166992,-0.44318273663520813,-0.1059851199388504
25347440,0.5433562994003296,-5.784231185913086,8.953410148620605,-0.6566801071166992,-0.44318273663520813,-0.1059851199388504
25348640,0.6169607043266296,-5.781239032745361,8.891176223754883,-0.6566801071166992,-0.44318273663520813,-0.1059851199388504
25349835,0.5397658348083496,-5.8285136222839355,8.89177417755127,-0.6566801071166992,-0.44318273663520813,-0.1059851199388504
25351020,0.5960163474082947,-5.832103729248047,8.9432373046875,-0.6566801071166992,-0.44318273663520813,-0.1059851199388504
25352192,0.5702847242355347,-5.779443740844727,8.981535911560059,-0.6566801071166992,-0.44318273663520813,-0.1059851199388504
25353378,0.4332488477230072,-5.783632755279541,8.912718772888184,-0.6566801071166992,-0.44318273663520813,-0.1059851199388504
25354557,0.4368393123149872,-5.836292743682861,8.922891616821289,-0.6566801071166992,-0.44318273663520813,-0.1059851199388504
25355761,0.5720799565315247,-5.8009867668151855,8.845098495483398,-0.6566801071166992,-0.44318273663520813,-0.1059851199388504
25356939,0.5164278149604797,-5.818340301513672,8.818768501281738,-0.6566801071166992,-0.44318273663520813,-0.1059851199388504
25358125,0.40691879391670227,-5.726185321807861,8.825948715209961,-0.6566801071166992,-0.44318273663520813,-0.1059851199388504
25359308,0.44402021169662476,-5.644203186035156,8.715841293334961,-0.6566801071166992,-0.44318273663520813,-0.1059851199388504
25360622,0.3919585645198822,-5.595731735229492,8.80679988861084,-0.6566801071166992,-0.44318273663520813,-0.1059851199388504
25361816,0.21722283959388733,-5.574189186096191,8.722424507141113,-0.6566801071166992,-0.44318273663520813,-0.1059851199388504
25363013,0.26090675592422485,-5.595731735229492,8.766108512878418,-0.6566801071166992,-0.44318273663520813,-0.1059851199388504
25364195,0.29860660433769226,-5.5951337814331055,8.846893310546875,-0.6566801071166992,-0.44318273663520813,-0.1059851199388504
25365370,0.24534809589385986,-5.626250743865967,8.933064460754395,-0.6566801071166992,-0.44318273663520813,-0.1059851199388504
25366545,0.3225429952144623,-5.6011176109313965,8.740376472473145,-0.6566801071166992,-0.44318273663520813,-0.1059851199388504
25367745,0.24654492735862732,-5.6011176109313965,8.768502235412598,-0.6566801071166992,-0.44318273663520813,-0.1059851199388504
25368905,0.3010002374649048,-5.541276454925537,8.669764518737793,-0.6566801071166992,-0.44318273663520813,-0.1059851199388504
25370091,0.28424474596977234,-5.543670177459717,8.554869651794434,-0.6566801071166992,-0.44318273663520813,-0.1059851199388504
25371277,0.5343801379203796,-5.537686347961426,8.705070495605469,-0.6566801071166992,-0.44318273663520813,-0.1059851199388504
25372480,0.7318554520606995,-5.616077899932861,8.680535316467285,-0.6566801071166992,-0.44318273663520813,-0.1059851199388504
25373684,0.8102471232414246,-5.673525333404541,8.560853958129883,-0.6566801071166992,-0.44318273663520813,-0.1059851199388504
25374847,0.9736130833625793,-5.604708194732666,8.5794038772583,-0.6566801071166992,-0.44318273663520813,-0.1059851199388504
25376031,0.9760067462921143,-5.583165168762207,8.447155952453613,-0.6566801071166992,-0.44318273663520813,-0.1059851199388504
25377200,0.9831876158714294,-5.631636619567871,8.44296646118164,-0.6566801071166992,-0.44318273663520813,-0.1059851199388504
25378405,0.9137721061706543,-5.562819480895996,8.422022819519043,-0.6566801071166992,-0.44318273663520813,-0.1059851199388504
25379604,0.9269371032714844,-5.441940784454346,8.36397647857666,-0.6566801071166992,-0.44318273663520813,-0.1059851199388504
25380656,0.8802611231803894,-5.397658348083496,8.404668807983398,-0.6566801071166992,-0.44318273663520813,-0.1059851199388504
25381624,0.7851139307022095,-5.289944648742676,8.438179969787598,-0.6566801071166992,-0.44318273663520813,-0.1059851199388504
25382586,0.6803922057151794,-5.266007900238037,8.443565368652344,-0.6566801071166992,-0.44318273663520813,-0.1059851199388504
25383546,0.6696208119392395,-5.276779651641846,8.456729888916016,-0.6566801071166992,-0.44318273663520813,-0.1059851199388504
25384794,0.5266007781028748,-5.1744513511657715,8.468698501586914,-0.6566801071166992,-0.44318273663520813,-0.1059851199388504
25385962,0.6516684889793396,-5.192403793334961,8.383724212646484,-0.6566801071166992,-0.44318273663520813,-0.1059851199388504
25387162,0.5637022256851196,-5.093067646026611,8.492634773254395,-0.6566801071166992,-0.44318273663520813,-0.1059851199388504
25388349,0.5325849056243896,-5.1253814697265625,8.464509963989258,-0.6566801071166992,-0.44318273663520813,-0.1059851199388504
25389539,0.5445531010627747,-5.086484909057617,8.466902732849121,-0.6566801071166992,-0.44318273663520813,-0.1059851199388504
25390729,0.6133702397346497,-5.049982070922852,8.4142427444458,-0.6566801071166992,-0.44318273663520813,-0.1059851199388504
25391905,0.5445531010627747,-5.072123050689697,8.350213050842285,-0.6566801071166992,-0.44318273663520813,-0.1059851199388504
25392960,0.5361753702163696,-5.019463062286377,8.355598449707031,-0.6566801071166992,-0.44318273663520813,-0.1059851199388504
25393933,0.6253384351730347,-5.026045799255371,8.329867362976074,-0.6566801071166992,-0.44318273663520813,-0.1059851199388504
25394897,0.6241416335105896,-5.067934513092041,8.33405590057373,-0.6566801071166992,-0.44318273663520813,-0.1059851199388504
25395866,0.6486764550209045,-5.054769515991211,8.347221374511719,-0.6566801071166992,-0.44318273663520813,-0.1059851199388504
25397143,0.6618414521217346,-5.073319911956787,8.299348831176758,-0.6566801071166992,-0.44318273663520813,-0.1059851199388504
25398340,0.7252729535102844,-5.085886478424072,8.274813652038574,-0.6566801071166992,-0.44318273663520813,-0.1059851199388504
25399524,0.6857778429985046,-5.0290374755859375,8.265837669372559,-0.6566801071166992,-0.44318273663520813,-0.1059851199388504
25400700,0.7510045766830444,-5.057162761688232,8.252074241638184,-0.6566801071166992,-0.44318273663520813,-0.1059851199388504
25401900,0.7958853244781494,-5.075115203857422,8.165304183959961,-0.6566801071166992,-0.44318273663520813,-0.1059851199388504
25403194,0.7677600383758545,-5.088280200958252,8.20479965209961,-0.6566801071166992,-0.44318273663520813,-0.1059851199388504
25404379,0.7414299845695496,-4.9817633628845215,8.23352336883545,-0.6566801071166992,-0.44318273663520813,-0.1059851199388504
25405557,0.6738096475601196,-5.004502773284912,8.23112964630127,-0.6566801071166992,-0.44318273663520813,-0.1059851199388504
25406740,0.7013365030288696,-5.005699634552002,8.17128849029541,-0.6566801071166992,-0.44318273663520813,-0.1059851199388504
25407930,0.7013365030288696,-5.053572654724121,8.191634178161621,-0.6566801071166992,-0.44318273663520813,-0.1059851199388504
25409132,0.6768017411231995,-4.9877471923828125,8.160517692565918,-0.6566801071166992,-0.44318273663520813,-0.1059851199388504
25410305,0.7061238288879395,-4.990739345550537,8.17487907409668,-0.6566801071166992,-0.44318273663520813,-0.1059851199388504
25411498,0.6241416335105896,-4.993133068084717,8.205397605895996,-0.6566801071166992,-0.44318273663520813,-0.1059851199388504
25412676,0.5714815855026245,-5.037415504455566,8.197020530700684,-0.6566801071166992,-0.44318273663520813,-0.1059851199388504
25413866,0.6085829734802246,-5.000912189483643,8.2275390625,-0.2076941877603531,-0.18906278908252716,-0.15302173793315887
25415067,0.6091814041137695,-5.003904342651367,8.16889476776123,-0.2076941877603531,-0.18906278908252716,-0.15302173793315887
25416268,0.5792608857154846,-4.991337776184082,8.05639362335205,-0.2076941877603531,-0.18906278908252716,-0.15302173793315887
25417448,0.5451515316963196,-4.976975917816162,8.03006362915039,-0.2076941877603531,-0.18906278908252716,-0.15302173793315887
25418637,0.5367738008499146,-4.934488773345947,8.055795669555664,-0.2076941877603531,-0.18906278908252716,-0.15302173793315887
25419833,0.6025989055633545,-4.9129462242126465,8.162312507629395,-0.2076941877603531,-0.18906278908252716,-0.15302173793315887
25421038,0.6265352964401245,-4.991337776184082,8.114439964294434,-0.2076941877603531,-0.18906278908252716,-0.15302173793315887
25422216,0.5918275117874146,-4.948252201080322,8.071952819824219,-0.2076941877603531,-0.18906278908252716,-0.15302173793315887
25423400,0.5702847242355347,-4.939874649047852,8.070755958557129,-0.2076941877603531,-0.18906278908252716,-0.15302173793315887
25424587,0.5954179763793945,-4.945260524749756,8.00493049621582,-0.2076941877603531,-0.18906278908252716,-0.15302173793315887
25425790,0.6139686703681946,-4.884222507476807,8.046819686889648,-0.2076941877603531,-0.18906278908252716,-0.15302173793315887
25426977,0.6091814041137695,-4.902174949645996,8.108455657958984,-0.2076941877603531,-0.18906278908252716,-0.15302173793315887
25428179,0.5002707839012146,-4.876442909240723,8.129998207092285,-0.2076941877603531,-0.18906278908252716,-0.15302173793315887
25429365,0.5146325826644897,-4.8638763427734375,8.070157051086426,-0.2076941877603531,-0.18906278908252716,-0.15302173793315887
25430607,0.5355769395828247,-4.8854193687438965,8.092896461486816,-0.2076941877603531,-0.18906278908252716,-0.15302173793315887
25431800,0.6157639026641846,-4.795657634735107,8.048614501953125,-0.2076941877603531,-0.18906278908252716,-0.15302173793315887
25433033,0.47154709696769714,-4.872852802276611,8.104865074157715,-0.2076941877603531,-0.18906278908252716,-0.15302173793315887
25434231,0.5786624550819397,-4.840538501739502,8.076740264892578,-0.2076941877603531,-0.18906278908252716,-0.15302173793315887
25435281,0.5906306505203247,-4.821987628936768,8.046819686889648,-0.2076941877603531,-0.18906278908252716,-0.15302173793315887
25436241,0.6121734380722046,-4.835751056671143,8.055795669555664,-0.2076941877603531,-0.18906278908252716,-0.15302173793315887
25437254,0.5631037950515747,-4.819594383239746,8.05759048461914,-0.2076941877603531,-0.18906278908252716,-0.15302173793315887
25438256,0.5529308319091797,-4.817799091339111,8.098880767822266,-0.2076941877603531,-0.18906278908252716,-0.15302173793315887
25439221,0.5990084409713745,-4.7950592041015625,8.116833686828613,-0.2076941877603531,-0.18906278908252716,-0.15302173793315887
25440195,0.5816545486450195,-4.810617923736572,8.109652519226074,-0.2076941877603531,-0.18906278908252716,-0.15302173793315887
25441167,0.6091814041137695,-4.832160949707031,8.107856750488281,-0.2076941877603531,-0.18906278908252716,-0.15302173793315887
25442136,0.5750719904899597,-4.791469097137451,8.05878734588623,-0.2076941877603531,-0.18906278908252716,-0.15302173793315887
25443277,0.5924258828163147,-4.792067527770996,8.100676536560059,-0.2076941877603531,-0.18906278908252716,-0.15302173793315887
25444619,0.5505372285842896,-4.8088226318359375,8.06596851348877,-0.2076941877603531,-0.18906278908252716,-0.15302173793315887
25445822,0.5852450132369995,-4.838743209838867,8.171887397766113,-0.2076941877603531,-0.18906278908252716,-0.15302173793315887
25447021,0.5720799565315247,-4.843530654907227,8.175477981567383,-0.2076941877603531,-0.18906278908252716,-0.15302173793315887
25448207,0.6145671010017395,-4.855498790740967,8.184453964233398,-0.2076941877603531,-0.18906278908252716,-0.15302173793315887
25449396,0.6073861718177795,-4.831562519073486,8.135383605957031,-0.2076941877603531,-0.18906278908252716,-0.15302173793315887
25450594,0.6552589535713196,-4.834554672241211,8.17846965789795,-0.2076941877603531,-0.18906278908252716,-0.15302173793315887
25451797,0.6163623332977295,-4.848916053771973,8.16769790649414,-0.2076941877603531,-0.18906278908252716,-0.15302173793315887
25452992,0.6289288997650146,-4.869860649108887,8.183257102966309,-0.2076941877603531,-0.18906278908252716,-0.15302173793315887
25454200,0.5768672227859497,-4.786681652069092,8.2059965133667,-0.2076941877603531,-0.18906278908252716,-0.15302173793315887
25455368,0.6660303473472595,-4.800445079803467,8.307127952575684,-0.2076941877603531,-0.18906278908252716,-0.15302173793315887
25456572,0.6067877411842346,-4.804035663604736,8.207193374633789,-0.2076941877603531,-0.18906278908252716,-0.15302173793315887
25457757,0.5553244948387146,-4.759753227233887,8.241901397705078,-0.2076941877603531,-0.18906278908252716,-0.15302173793315887
25458958,0.5876386165618896,-4.751973628997803,8.132391929626465,-0.2076941877603531,-0.18906278908252716,-0.15302173793315887
25460148,0.6624398827552795,-4.677771091461182,8.25027847290039,-0.2076941877603531,-0.18906278908252716,-0.15302173793315887
25461347,0.6295273303985596,-4.733423233032227,8.216768264770508,-0.2076941877603531,-0.18906278908252716,-0.15302173793315887
25462542,0.6498732566833496,-4.719659805297852,8.327473640441895,-0.2076941877603531,-0.18906278908252716,-0.15302173793315887
25463736,0.7055253982543945,-4.752572059631348,8.357394218444824,-0.2076941877603531,-0.18906278908252716,-0.15302173793315887
25464912,0.6660303473472595,-4.738210201263428,8.401676177978516,-0.2076941877603531,-0.18906278908252716,-0.15302173793315887
25466115,0.6953524351119995,-4.7400054931640625,8.28738021850586,-0.2076941877603531,-0.18906278908252716,-0.15302173793315887
25467291,0.7216824889183044,-4.742997646331787,8.338245391845703,-0.2076941877603531,-0.18906278908252716,-0.15302173793315887
25468504,0.7408316135406494,-4.817200660705566,8.443565368652344,-0.2076941877603531,-0.18906278908252716,-0.15302173793315887
25469701,0.7246745228767395,-4.722651958465576,8.344827651977539,-0.2076941877603531,-0.18906278908252716,-0.15302173793315887
25470881,0.7438236474990845,-4.725643634796143,8.3927001953125,-0.2076941877603531,-0.18906278908252716,-0.15302173793315887
25472070,0.6983444690704346,-4.723848819732666,8.45014762878418,-0.2076941877603531,-0.18906278908252716,-0.15302173793315887
25473256,0.7145015597343445,-4.751375675201416,8.379535675048828,-0.2076941877603531,-0.18906278908252716,-0.15302173793315887
25474466,0.7910980582237244,-4.702305793762207,8.392102241516113,-0.2076941877603531,-0.18906278908252716,-0.15302173793315887
25475670,0.7145015597343445,-4.762146949768066,8.436384201049805,-0.2076941877603531,-0.18906278908252716,-0.15302173793315887
25476853,0.6157639026641846,-4.783689498901367,8.39629077911377,-0.2076941877603531,-0.18906278908252716,-0.15302173793315887
25478024,0.6516684889793396,-4.764540672302246,8.379535675048828,-0.2076941877603531,-0.18906278908252716,-0.15302173793315887
25479217,0.6229448318481445,-4.807027816772461,8.468698501586914,-0.2076941877603531,-0.18906278908252716,-0.15302173793315887
25480422,0.6516684889793396,-4.818995952606201,8.42142391204834,-0.2076941877603531,-0.18906278908252716,-0.15302173793315887
25481617,0.6385034918785095,-4.823782920837402,8.408259391784668,-0.2076941877603531,-0.18906278908252716,-0.15302173793315887
25482676,0.6283305287361145,-4.889608383178711,8.432793617248535,-0.2076941877603531,-0.18906278908252716,-0.15302173793315887
25483639,0.6253384351730347,-4.893198490142822,8.4142427444458,-0.2076941877603531,-0.18906278908252716,-0.15302173793315887
25484604,0.5786624550819397,-4.867466926574707,8.382527351379395,-0.2076941877603531,-0.18906278908252716,-0.15302173793315887
25485564,0.5792608857154846,-4.896190643310547,8.512382507324219,-0.2076941877603531,-0.18906278908252716,-0.15302173793315887
25486529,0.5493403673171997,-4.893796920776367,8.47288703918457,-0.2076941877603531,-0.18906278908252716,-0.15302173793315887
25487682,0.5080500841140747,-4.875246524810791,8.497422218322754,-0.2076941877603531,-0.18906278908252716,-0.15302173793315887
25488869,0.5044596195220947,-4.920725345611572,8.463911056518555,-0.2076941877603531,-0.18906278908252716,-0.15302173793315887
25490077,0.5289944410324097,-5.005101203918457,8.444762229919434,-0.2076941877603531,-0.18906278908252716,-0.15302173793315887
25491277,0.6313225626945496,-5.012282371520996,8.36996078491211,0.4639521539211273,0.1719585657119751,0.10965031385421753
25492478,0.5152310132980347,-4.982361793518066,8.428006172180176,0.4639521539211273,0.1719585657119751,0.10965031385421753
25493665,0.5517340302467346,-4.9877471923828125,8.344228744506836,0.4639521539211273,0.1719585657119751,0.10965031385421753
25494854,0.6193543672561646,-4.959621906280518,8.338245391845703,0.4639521539211273,0.1719585657119751,0.10965031385421753
25495914,0.5672926902770996,-4.984157085418701,8.39030647277832,0.4639521539211273,0.1719585657119751,0.10965031385421753
25496887,0.5553244948387146,-5.002109050750732,8.384322166442871,0.4639521539211273,0.1719585657119751,0.10965031385421753
25498054,0.5996068120002747,-4.949449062347412,8.383126258850098,0.4639521539211273,0.1719585657119751,0.10965031385421753
25499030,0.6073861718177795,-4.931497097015381,8.381330490112305,0.4639521539211273,0.1719585657119751,0.10965031385421753
25500189,0.5625054240226746,-4.868065357208252,8.4812650680542,0.4639521539211273,0.1719585657119751,0.10965031385421753
25501354,0.5852450132369995,-4.936284065246582,8.406463623046875,0.4639521539211273,0.1719585657119751,0.10965031385421753
25502550,0.5475451350212097,-4.894395351409912,8.508193016052246,0.4639521539211273,0.1719585657119751,0.10965031385421753
25503734,0.5499387979507446,-4.914143085479736,8.505800247192383,0.4639521539211273,0.1719585657119751,0.10965031385421753
25504897,0.5906306505203247,-4.969795227050781,8.454336166381836,0.4639521539211273,0.1719585657119751,0.10965031385421753
25506149,0.5607101917266846,-4.985952377319336,8.44176959991455,0.4639521539211273,0.1719585657119751,0.10965031385421753
25507335,0.5433562994003296,-4.947653770446777,8.456131935119629,0.4639521539211273,0.1719585657119751,0.10965031385421753
25508548,0.5391674041748047,-4.919528484344482,8.45373821258545,0.4639521539211273,0.1719585657119751,0.10965031385421753
25509737,0.4428234100341797,-4.919528484344482,8.509988784790039,0.4639521539211273,0.1719585657119751,0.10965031385421753
25510909,0.41409972310066223,-4.8914031982421875,8.512980461120605,0.4639521539211273,0.1719585657119751,0.10965031385421753
25512101,0.4428234100341797,-4.868065357208252,8.47408390045166,0.4639521539211273,0.1719585657119751,0.10965031385421753
25513282,0.45957887172698975,-4.844727516174316,8.484256744384766,0.4639521539211273,0.1719585657119751,0.10965031385421753
25514489,0.5367738008499146,-4.792665958404541,8.402275085449219,0.4639521539211273,0.1719585657119751,0.10965031385421753
25515682,0.5726783871650696,-4.827373504638672,8.381929397583008,0.4639521539211273,0.1719585657119751,0.10965031385421753
25516853,0.5768672227859497,-5.028439521789551,8.429801940917969,0.4639521539211273,0.1719585657119751,0.10965031385421753
25518036,0.5714815855026245,-4.826775074005127,8.39509391784668,0.4639521539211273,0.1719585657119751,0.10965031385421753
25519249,0.5750719904899597,-4.763942241668701,8.403471946716309,0.4639521539211273,0.1719585657119751,0.10965031385421753
25520458,0.6504716873168945,-4.904568195343018,8.454336166381836,0.4639521539211273,0.1719585657119751,0.10965031385421753
25521648,0.6205511689186096,-4.836947917938232,8.44176959991455,0.4639521539211273,0.1719585657119751,0.10965031385421753
25522830,0.6768017411231995,-4.853105068206787,8.456131935119629,0.4639521539211273,0.1719585657119751,0.10965031385421753
25524025,0.6953524351119995,-4.829767227172852,8.514776229858398,0.4639521539211273,0.1719585657119751,0.10965031385421753
25525233,0.6582509875297546,-4.840538501739502,8.430399894714355,0.4639521539211273,0.1719585657119751,0.10965031385421753
25526420,0.6504716873168945,-4.859089374542236,8.522555351257324,0.4639521539211273,0.1719585657119751,0.10965031385421753
25527604,0.6785969734191895,-4.912347793579102,8.534523963928223,0.4639521539211273,0.1719585657119751,0.10965031385421753
25528808,0.5870402455329895,-4.817799091339111,8.569231033325195,0.4639521539211273,0.1719585657119751,0.10965031385421753
25529991,0.6091814041137695,-4.757957935333252,8.550082206726074,0.4639521539211273,0.1719585657119751,0.10965031385421753
25531189,0.5906306505203247,-4.903371810913086,8.498619079589844,0.4639521539211273,0.1719585657119751,0.10965031385421753
25532383,0.5080500841140747,-4.899781227111816,8.50759506225586,0.4639521539211273,0.1719585657119751,0.10965031385421753
25533580,0.5918275117874146,-4.923119068145752,8.569829940795898,0.4639521539211273,0.1719585657119751,0.10965031385421753
25534787,0.5044596195220947,-4.959621906280518,8.566837310791016,0.4639521539211273,0.1719585657119751,0.10965031385421753
25535985,0.5182230472564697,-4.933890342712402,8.576412200927734,0.4639521539211273,0.1719585657119751,0.10965031385421753
25537177,0.5427578687667847,-4.979369640350342,8.5913724899292,0.4639521539211273,0.1719585657119751,0.10965031385421753
25538240,0.5080500841140747,-5.012282371520996,8.607529640197754,0.4639521539211273,0.1719585657119751,0.10965031385421753
25539193,0.5744736194610596,-5.063745498657227,8.678141593933105,0.4639521539211273,0.1719585657119751,0.10965031385421753
25540203,0.5086485147476196,-5.012282371520996,8.656001091003418,0.4639521539211273,0.1719585657119751,0.10965031385421753
25541192,0.5918275117874146,-5.033824920654297,8.644631385803223,0.4639521539211273,0.1719585657119751,0.10965031385421753
25542166,0.5230103731155396,-5.019463062286377,8.672158241271973,0.4639521539211273,0.1719585657119751,0.10965031385421753
25543132,0.49548348784446716,-5.071524620056152,8.620096206665039,0.4639521539211273,0.1719585657119751,0.10965031385421753
25544106,0.47573596239089966,-5.065540790557861,8.715841293334961,0.4639521539211273,0.1719585657119751,0.10965031385421753
25545071,0.4799248278141022,-5.092469215393066,8.678740501403809,0.4639521539211273,0.1719585657119751,0.10965031385421753
25546362,0.46556299924850464,-5.070926189422607,8.654804229736328,0.4639521539211273,0.1719585657119751,0.10965031385421753
25547558,0.4021315276622772,-5.173254489898682,8.69788932800293,0.4639521539211273,0.1719585657119751,0.10965031385421753
25548756,0.4924914240837097,-5.125979900360107,8.680535316467285,0.4639521539211273,0.1719585657119751,0.10965031385421753
25549928,0.46137410402297974,-5.122988224029541,8.648819923400879,0.4639521539211273,0.1719585657119751,0.10965031385421753
25551144,0.4290599822998047,-5.082894802093506,8.677543640136719,0.4639521539211273,0.1719585657119751,0.10965031385421753
25552355,0.45359477400779724,-5.031431198120117,8.782265663146973,0.4639521539211273,0.1719585657119751,0.10965031385421753
25553536,0.3716126084327698,-5.063147068023682,8.77328872680664,0.4639521539211273,0.1719585657119751,0.10965031385421753
25554720,0.4290599822998047,-5.018864631652832,8.788847923278809,0.4639521539211273,0.1719585657119751,0.10965031385421753
25555915,0.3799903690814972,-5.058359622955322,8.779871940612793,0.4639521539211273,0.1719585657119751,0.10965031385421753
25557139,0.4446186423301697,-5.0230536460876465,8.872625350952148,0.4639521539211273,0.1719585657119751,0.10965031385421753
25558366,0.4960818886756897,-5.0290374755859375,8.830138206481934,0.4639521539211273,0.1719585657119751,0.10965031385421753
25559560,0.49488508701324463,-5.054171085357666,8.75294303894043,0.4639521539211273,0.1719585657119751,0.10965031385421753
25560747,0.47513753175735474,-5.032029628753662,8.678740501403809,0.4639521539211273,0.1719585657119751,0.10965031385421753
25561934,0.45539000630378723,-5.089477062225342,8.743967056274414,0.4639521539211273,0.1719585657119751,0.10965031385421753
25563123,0.46556299924850464,-5.0643439292907715,8.822957038879395,0.4639521539211273,0.1719585657119751,0.10965031385421753
25564333,0.5014675855636597,-5.121192932128906,8.74695873260498,0.4639521539211273,0.1719585657119751,0.10965031385421753
25565524,0.5122389793395996,-5.112814903259277,8.733794212341309,0.4639521539211273,0.1719585657119751,0.10965031385421753
25566709,0.4847120940685272,-5.054171085357666,8.721227645874023,0.4639521539211273,0.1719585657119751,0.10965031385421753
25567897,0.43384724855422974,-5.021258354187012,8.656599044799805,0.4639521539211273,0.1719585657119751,0.10965031385421753
25569100,0.5325849056243896,-5.121791362762451,8.716440200805664,0.005192354321479797,-0.01771509274840355,0.04489859566092491
25570313,0.4889009892940521,-5.038612365722656,8.72780990600586,0.005192354321479797,-0.01771509274840355,0.04489859566092491
25571527,0.4685550332069397,-5.060753345489502,8.802611351013184,0.005192354321479797,-0.01771509274840355,0.04489859566092491
25572717,0.5660958886146545,-5.132562637329102,8.676944732666016,0.005192354321479797,-0.01771509274840355,0.04489859566092491
25573919,0.5942211151123047,-5.069729804992676,8.69429874420166,0.005192354321479797,-0.01771509274840355,0.04489859566092491
25575141,0.5876386165618896,-5.079304218292236,8.784658432006836,0.005192354321479797,-0.01771509274840355,0.04489859566092491
25576365,0.5218135118484497,-5.040407657623291,8.743967056274414,0.005192354321479797,-0.01771509274840355,0.04489859566092491
25577580,0.49488508701324463,-5.081697940826416,8.790642738342285,0.005192354321479797,-0.01771509274840355,0.04489859566092491
25578771,0.4900977909564972,-5.089477062225342,8.7445650100708,0.005192354321479797,-0.01771509274840355,0.04489859566092491
25579960,0.4212806522846222,-5.040407657623291,8.688314437866211,0.005192354321479797,-0.01771509274840355,0.04489859566092491
25581167,0.42606791853904724,-5.066737651824951,8.770297050476074,0.005192354321479797,-0.01771509274840355,0.04489859566092491
25582384,0.3207477629184723,-5.083493232727051,8.708661079406738,0.005192354321479797,-0.01771509274840355,0.04489859566092491
25583590,0.29860660433769226,-5.006298065185547,8.687716484069824,0.005192354321479797,-0.01771509274840355,0.04489859566092491
25584781,0.37101420760154724,-5.076910495758057,8.688913345336914,0.005192354321479797,-0.01771509274840355,0.04489859566092491
25585825,0.4296583831310272,-5.109823226928711,8.6464262008667,0.005192354321479797,-0.01771509274840355,0.04489859566092491
25586788,0.4033283591270447,-5.129570484161377,8.635056495666504,0.005192354321479797,-0.01771509274840355,0.04489859566092491
25587746,0.3973442316055298,-5.119996070861816,8.590773582458496,0.005192354321479797,-0.01771509274840355,0.04489859566092491
25588708,0.3758014738559723,-5.093067646026611,8.674551010131836,0.005192354321479797,-0.01771509274840355,0.04489859566092491
25589846,0.5116405487060547,-5.113413333892822,8.637450218200684,0.005192354321479797,-0.01771509274840355,0.04489859566092491
25591017,0.3919585645198822,-5.099649906158447,8.6344575881958,0.005192354321479797,-0.01771509274840355,0.04489859566092491
25592226,0.40632039308547974,-5.074516773223877,8.61650562286377,0.005192354321479797,-0.01771509274840355,0.04489859566092491
25593419,0.36503010988235474,-5.106232643127441,8.58658504486084,0.005192354321479797,-0.01771509274840355,0.04489859566092491
25594623,0.3506682515144348,-5.105035781860352,8.58299446105957,0.005192354321479797,-0.01771509274840355,0.04489859566092491
25595816,0.3584475815296173,-5.108027935028076,8.638647079467773,0.005192354321479797,-0.01771509274840355,0.04489859566092491
25596867,0.2615051865577698,-5.066139221191406,8.576412200927734,0.005192354321479797,-0.01771509274840355,0.04489859566092491
25597830,0.22919103503227234,-5.084689617156982,8.554869651794434,0.005192354321479797,-0.01771509274840355,0.04489859566092491
25598789,0.26270198822021484,-5.116405487060547,8.50520133972168,0.005192354321479797,-0.01771509274840355,0.04489859566092491
25599750,0.19029438495635986,-5.118799209594727,8.52554702758789,0.005192354321479797,-0.01771509274840355,0.04489859566092491
25600709,0.15977546572685242,-5.1116180419921875,8.516571044921875,0.005192354321479797,-0.01771509274840355,0.04489859566092491
25601960,0.1735389083623886,-5.169065475463867,8.524949073791504,0.005192354321479797,-0.01771509274840355,0.04489859566092491
25603146,0.1358390748500824,-5.154703617095947,8.50161075592041,0.005192354321479797,-0.01771509274840355,0.04489859566092491
25604343,0.11130426079034805,-5.152908802032471,8.484256744384766,0.005192354321479797,-0.01771509274840355,0.04489859566092491
25605530,0.07899012416601181,-5.136751651763916,8.489643096923828,0.005192354321479797,-0.01771509274840355,0.04489859566092491
25606730,0.06821873784065247,-5.135554790496826,8.463911056518555,0.005192354321479797,-0.01771509274840355,0.04489859566092491
25607917,0.055652130395174026,-5.152310371398926,8.462116241455078,0.005192354321479797,-0.01771509274840355,0.04489859566092491
25609120,0.0670219212770462,-5.152310371398926,8.44655704498291,0.005192354321479797,-0.01771509274840355,0.04489859566092491
25610303,0.13224861025810242,-5.132562637329102,8.519563674926758,0.005192354321479797,-0.01771509274840355,0.04489859566092491
25611515,0.08617103844881058,-5.119996070861816,8.419629096984863,0.005192354321479797,-0.01771509274840355,0.04489859566092491
25612714,0.11309949308633804,-5.213347911834717,8.427408218383789,0.005192354321479797,-0.01771509274840355,0.04489859566092491
25613925,0.12566609680652618,-5.133759498596191,8.427408218383789,0.005192354321479797,-0.01771509274840355,0.04489859566092491
25615137,0.1615706980228424,-5.085886478424072,8.388511657714844,0.005192354321479797,-0.01771509274840355,0.04489859566092491
25616339,0.15857864916324615,-5.130168914794922,8.42501449584961,0.005192354321479797,-0.01771509274840355,0.04489859566092491
