time_micros,gyro_x,gyro_y,gyro_z,rotation_x,rotation_y,rotation_z,total_rotation
17408024,0.0005083338810435711,-0.00018627191002452276,-0.0008338250861470459,0.0,0.0,0.0,0.0
17409223,0.0005083338810435711,-0.00018627191002452276,-0.0008338250861470459,3.492133777479494e-05,-1.2796440549208671e-05,-5.728181528774126e-05,6.829681607051429e-05
17410389,0.0005083338810435711,-0.00018627191002452276,-0.0008338250861470459,6.888153781266892e-05,-2.524068548697123e-05,-0.0001129870668519667,0.0001347139032583539
17411577,0.0005083338810435711,-0.00018627191002452276,-0.0008338250861470459,0.00010348249634182354,-3.79197274990312e-05,-0.00016974336089853602,0.0002023841430346433
17412747,0.0005083338810435711,-0.00018627191002452276,-0.0008338250861470459,0.00013755919792356674,-5.040666281393874e-05,-0.0002256397110959149,0.00026902907614765557
17413928,0.0005083338810435711,-0.00018627191002452276,-0.0008338250861470459,0.00017195627875095024,-6.3010996665995e-05,-0.0002820615825344657,0.00033630058555489276
17415105,0.0005083338810435711,-0.00018627191002452276,-0.0008338250861470459,0.00020623685803446455,-7.557264014090627e-05,-0.0003382923553398631,0.00040334424903695727
17416296,0.0005083338810435711,-0.00018627191002452276,-0.0008338250861470459,0.00024092519272152108,-8.828369993582498e-05,-0.00039519197336129746,0.00047118537325712616
17417471,0.0005083338810435711,-0.00018627191002452276,-0.0008338250861470459,0.0002751475212331008,-0.00010082399822216375,-0.00045132719685011814,0.0005381151137766044
17418682,0.0005083338810435711,-0.00018627191002452276,-0.0008338250861470459,0.00031041836363950335,-0.00011374850990280736,-0.0005091823080373197,0.0006070954676226367
17419844,0.0005083338810435711,-0.00018627191002452276,-0.0008338250861470459,0.0003442620621335081,-0.00012615006446342494,-0.0005646964609683917,0.0006732847088853036
17421028,0.0005083338810435711,-0.00018627191002452276,-0.0008338250861470459,0.00037874651911879353,-0.00013878641609833993,-0.0006212616563818075,0.0007407271027364202
17422201,0.0005083338810435711,-0.00018627191002452276,-0.0008338250861470459,0.0004129105968584386,-0.0001513053691961062,-0.0006773013305540515,0.0008075429202933121
17423390,0.0005083338810435711,-0.00018627191002452276,-0.0008338250861470459,0.00044754068077356053,-0.00016399508380245242,-0.0007341053992589092,0.0008752701215508946
17424567,0.0005083338810435711,-0.00018627191002452276,-0.0008338250861470459,0.00048182126005707484,-0.00017655672727736368,-0.0007903361720643066,0.0009423137850329592
17425756,0.0005083338810435711,-0.00018627191002452276,-0.0008338250861470459,0.0005164513439721968,-0.0001892464418837099,-0.0008471402407691643,0.0010100409862905419
17426892,0.0005083338810435711,-0.00018627191002452276,-0.0008338250861470459,0.0005495377824310517,-0.0002013705089928851,-0.000901412252584739,0.0010747492290395862
17428089,0.0005083338810435711,-0.00018627191002452276,-0.0008338250861470459,0.000584400869433912,-0.00021414560435352128,-0.0009585985185559036,0.0011429321221475143
17429277,0.0005083338810435711,-0.00018627191002452276,-0.0008338250861470459,0.0006190018279630667,-0.00022682464636558124,-0.001015354812602473,0.0012106023619238035
17430464,0.0005083338810435711,-0.00018627191002452276,-0.0008338250861470459,0.000653573661106254,-0.00023949301578335495,-0.001072063331990754,0.0012782156402188
17431623,0.0005083338810435711,-0.00018627191002452276,-0.0008338250861470459,0.0006873299834423568,-0.0002518625525611138,-0.001127434160946961,0.0013442339970375873
17432806,0.0005083338810435711,-0.00018627191002452276,-0.0008338250861470459,0.0007217853150416749,-0.0002644882316017425,-0.0011839515817020886,0.001411619429407411
17433954,0.0005083338810435711,-0.00018627191002452276,-0.0008338250861470459,0.0007552212581321374,-0.00027674036984235264,-0.0012387968894171236,0.0014770112099319734
17435141,0.0005083338810435711,-0.00018627191002452276,-0.0008338250861470459,0.0007897930912753248,-0.00028940873926012637,-0.0012955054088054046,0.0015446244882269698
17436338,0.0005083338810435711,-0.00018627191002452276,-0.0008338250861470459,0.0008246561782781851,-0.00030218383462076256,-0.001352691674776569,0.0016128073813348974
17437535,0.0005083338810435711,-0.00018627191002452276,-0.0008338250861470459,0.0008595192652810454,-0.00031495892998139875,-0.0014098779407477335,0.0016809902744428253
17438700,0.0005083338810435711,-0.00018627191002452276,-0.0008338250861470459,0.0008934503399329521,-0.0003273925023248751,-0.0014655354176536706,0.0017473504001493717
17439904,0.0005083338810435711,-0.00018627191002452276,-0.0008338250861470459,0.0009285173046375835,-0.00034024230584551497,-0.0015230561062328535,0.0018159320236263517
17441123,0.0005083338810435711,-0.00018627191002452276,-0.0008338250861470459,0.0009640211501317245,-0.00035325219828044856,-0.001581293414686362,0.0018853680693227295
17442349,0.0005083338810435711,-0.00018627191002452276,-0.0008338250861470459,0.0009997288733276366,-0.00036633679887538586,-0.001639865145747889,0.0019552028453881597
17443515,0.0005083338810435711,-0.00018627191002452276,-0.0008338250861470459,0.0010336890733655107,-0.00037878104381314844,-0.0016955703973121144,0.002021619932575999
17444701,0.0005083338810435711,-0.00018627191002452276,-0.0008338250861470459,0.0010682317811227307,-0.0003914387406366359,-0.001752231142042107,0.0020891762493897023
17445753,0.0005083338810435711,-0.00018627191002452276,-0.0008338250861470459,0.0010988716871603323,-0.0004026663098257665,-0.0018024900825614595,0.0021490997277101203
17447028,0.0005083338810435711,-0.00018627191002452276,-0.0008338250861470459,0.0011360065542686422,-0.00041627386754072984,-0.001863402771879116,0.0022217256163589156
17448243,0.0005083338810435711,-0.00018627191002452276,-0.0008338250861470459,0.001171393898218914,-0.00042924106959851843,-0.0019214489816994711,0.0022909338161301207
17449422,0.0005083338810435711,-0.00018627191002452276,-0.0005283922598664451,0.0012057327282743628,-0.00044182405826200216,-0.0019571427898259714,0.0023408134932665675
17450629,-0.00040796459779813415,0.0007300228435269743,-0.0005283922598664451,0.0011775195261533485,-0.00039133859420814463,-0.001993684288052168,0.0023482919686902844
17451807,-0.00040796459779813415,0.0007300228435269743,-0.0005283922598664451,0.0011499841888720271,-0.0003420661197628719,-0.0020293478215322506,0.0023574828622289013
17453004,-0.00040796459779813415,0.0007300228435269743,-0.0005283922598664451,0.0011220047332474586,-0.0002919989279878367,-0.00206558657329427,0.0023687139732667833
17454173,-0.00040796459779813415,0.0007300228435269743,-0.0005283922598664451,0.0010946797678129385,-0.0002431028985935041,-0.002100977634956593,0.002381497393647818
17455351,-0.00040796459779813415,0.0007300228435269743,-0.0005283922598664451,0.0010671444305316172,-0.00019383042414823138,-0.0021366411684366755,0.0023961642163254533
17456526,-0.00040796459779813415,0.0007300228435269743,-0.0005283922598664451,0.0010396792171992297,-0.00014468343138660536,-0.002172213877977505,0.0024125462278828725
17457718,-0.00040796459779813415,0.0007300228435269743,-0.0005283922598664451,0.0010118166348228842,-9.482537575098136e-05,-0.0022083012565074357,0.0024309173564485776
17458902,-0.00040796459779813415,0.0007300228435269743,-0.0005283922598664451,0.0009841410496436952,-4.530193793841522e-05,-0.0022441464378660245,0.0024508731313067876
17460103,-0.00040796459779813415,0.0007300228435269743,-0.0005283922598664451,0.0009560680954205483,4.932562748148915e-06,-0.002280506288213715,0.0024728120559069254
17461312,-0.00040796459779813415,0.0007300228435269743,-0.0005283922598664451,0.0009278081440002448,5.550168125777092e-05,-0.002317108335732747,0.002496577543001178
17462512,-0.00040796459779813415,0.0007300228435269743,-0.0005283922598664451,0.0008997585644267425,0.00010569435471645282,-0.0023534379114340197,0.002521786425106837
17463692,-0.00040796459779813415,0.0007300228435269743,-0.0005283922598664451,0.0008721764778461319,0.00015505048361749002,-0.0023891619942069376,0.0025481027246837934
17464883,-0.00040796459779813415,0.0007300228435269743,-0.0005283922598664451,0.000844337270119431,0.0002048667120252318,-0.0024252190980904504,0.0025761528427388426
17466074,-0.00040796459779813415,0.0007300228435269743,-0.0005283922598664451,0.00081649806239273,0.00025468294043297357,-0.0024612762019739633,0.0026056502122199835
17467272,-0.00040796459779813415,0.0007300228435269743,-0.0005283922598664451,0.000788495232118517,0.000304791959435891,-0.0024975452283824006,0.002636731885768081
17468330,-0.00040796459779813415,0.0007300228435269743,-0.0005283922598664451,0.0007637648527945458,0.0003490451665352955,-0.002529575804292356,0.0026653185603802117
17469308,-0.00040796459779813415,0.0007300228435269743,-0.0005283922598664451,0.0007409044454421415,0.00038995219540412127,-0.002559184408488893,0.0026926616847701207
17470461,-0.00040796459779813415,0.0007300228435269743,-0.0005283922598664451,0.0007139534744019348,0.0004381789891523381,-0.0025940910758085324,0.0027259931951005728
17471670,-0.00040796459779813415,0.0007300228435269743,-0.0005283922598664451,0.0006856935229816312,0.0004887481076619601,-0.0026306931233275647,0.002762172447427033
17472855,-0.00040796459779813415,0.0007300228435269743,-0.0005283922598664451,0.0006579945631527978,0.0005383133727024084,-0.0026665685793325713,0.0027988079820974875
17474080,-0.00040796459779813415,0.0007300228435269743,-0.0005283922598664451,0.0006293606173381809,0.0005895517268581462,-0.002703655021194287,0.00283785420677786
17475275,-0.00040796459779813415,0.0007300228435269743,-0.0005283922598664451,0.0006014279110129016,0.0006395352641774169,-0.0027398332236634707,0.0028770483102933788
17476483,-0.00040796459779813415,0.0007300228435269743,-0.0005283922598664451,0.0005731913342422426,0.0006900625554591567,-0.002776404996536085,0.0029177318829679607
17477665,-0.00040796459779813415,0.0007300228435269743,-0.0005283922598664451,0.0005455624983623429,0.0007395023388159584,-0.0028121896286018386,0.0029585321792992858
17478834,-0.00040796459779813415,0.0007300228435269743,-0.0005283922598664451,0.0005182375329278228,0.0007883983682102911,-0.0028475806902641615,0.0029998096464771036
17480018,-0.00040796459779813415,0.0007300228435269743,-0.0005283922598664451,0.000490561947748634,0.0008379218060228572,-0.0028834258716227503,0.0030425168421441746
17481227,-0.00040796459779813415,0.0007300228435269743,-0.0005283922598664451,0.0004623019963283304,0.0008884909245324792,-0.0029200279191417826,0.0030870215916564674
17482421,-0.00040796459779813415,0.0007300228435269743,-0.0005283922598664451,0.0004343926646526957,0.0009384326346238678,-0.002956175846964549,0.0031318250964905005
17483614,-0.00040796459779813415,0.0007300228435269743,-0.0005283922598664451,0.00040650670762670555,0.000988332517487374,-0.0029922935001408975,0.0031773997638720086
17484790,-0.00040796459779813415,0.0007300228435269743,-0.0005283922598664451,0.00037901811964467336,0.0010375213374768824,-0.0030278964843281444,0.00322308274491139
17486008,-0.00040796459779813415,0.0007300228435269743,-0.0005283922598664451,0.0003505477963775686,0.0010884669010374445,-0.003064771003664936,0.0032711565626097148
17487239,-0.00040796459779813415,0.0007300228435269743,-0.0005283922598664451,0.0003217736026650842,0.0011399562185604756,-0.003102039093405158,0.0033204946873351057
17488393,-0.00040796459779813415,0.0007300228435269743,-0.0005283922598664451,0.00029479925697523286,0.0011882248395365747,-0.003136976035371215,0.0033674030821536907
17489702,-0.00040796459779813415,0.0007300228435269743,-0.0005283922598664451,0.0002642018405904708,0.0012429766808344201,-0.00317660554753202,0.0034213471683359974
17490913,-0.00040796459779813415,0.0007300228435269743,-0.0005283922598664451,0.00023589513987087814,0.0012936294537998067,-0.0032132681443438876,0.0034719181799415
17492097,-0.00040796459779813415,0.0007300228435269743,-0.0005283922598664451,0.00020821955469168925,0.0013431528916123727,-0.0032491133257024764,0.0035219529350149032
17493281,-0.00040796459779813415,0.0007300228435269743,-0.0005283922598664451,0.00018054396951250036,0.0013926763294249387,-0.003284958507061065,0.0035725475331450404
17494457,-0.00040796459779813415,0.0007300228435269743,-0.0005283922598664451,0.00015305538153046817,0.001441865149414447,-0.003320561491248312,0.003623331295378963
17495648,-0.00040796459779813415,0.0007300228435269743,-0.0005283922598664451,0.00012521617380376718,0.0014916813778221888,-0.003356618595131825,0.003675279692255857
17496813,-0.00040796459779813415,0.0007300228435269743,-0.0005283922598664451,9.798470696782542e-05,0.0015404100983049925,-0.003391888558208477,0.0037265764805066255
17497990,-0.00040796459779813415,0.0007300228435269743,-0.0005283922598664451,7.047274433614862e-05,0.001589640745522383,-0.0034275218170421416,0.0037788662206830093
17499166,-0.00040796459779813415,0.0007300228435269743,-0.0005283922598664451,4.298415635411643e-05,0.0016388295655118913,-0.0034631248012293885,0.0038315588696225798
17500370,-0.00040796459779813415,0.0007300228435269743,-0.0005283922598664451,1.4841078182035846e-05,0.0016891895478821021,-0.003499575475516332,0.003885950346454662
17501547,-0.00040796459779813415,0.0007300228435269743,-0.0005283922598664451,-1.2670884449640939e-05,0.0017384201950994926,-0.003535208734349997,0.003939538820911275
17502727,-0.00040796459779813415,0.0007300228435269743,-0.0005283922598664451,-4.025297103025148e-05,0.0017877763240005298,-0.0035709328171229147,0.003993660685478801
17503903,-0.00040796459779813415,0.0007300228435269743,-0.0005283922598664451,-6.774155901228368e-05,0.001836965143990038,-0.0036065358013101616,0.004047978550484634
17505103,-0.00040796459779813415,0.0007300228435269743,-0.0005283922598664451,-9.579113858578592e-05,0.00188715781744872,-0.003642865377011434,0.00410377980954364
17506287,-0.00040796459779813415,0.0007300228435269743,-0.0005283922598664451,-0.0001234667237649748,0.001936681255261286,-0.003678710558370023,0.004159193393991289
17507480,-0.00040796459779813415,0.0007300228435269743,-0.0005283922598664451,-0.00015135268079096494,0.0019865811381247923,-0.0037148282115463714,0.004215371975714198
17508670,-0.00040796459779813415,0.0007300228435269743,-0.0005283922598664451,-0.00017916851386802133,0.002036355539304652,-0.003750855040783467,0.004271739549151979
17509862,-0.00040796459779813415,0.0007300228435269743,-0.0005283922598664451,-0.00020703109624436688,0.002086213594940276,-0.0037869424193133975,0.0043285195997847786
17511052,-0.00040796459779813415,0.0007300228435269743,-0.0005283922598664451,-0.00023484692932142326,0.0021359879961201354,-0.003822969248550493,0.004385509283440605
17512247,-0.00040796459779813415,0.0007300228435269743,-0.0005283922598664451,-0.0002627796356467026,0.002185971533439406,-0.0038591474510196767,0.004443033167851633
17513431,-0.00040796459779813415,0.0007300228435269743,-0.0005283922598664451,-0.00029045522082589144,0.0022354949712519723,-0.0038949926323782655,0.00450030772370944
17514627,-0.00040796459779813415,0.0007300228435269743,-0.0005283922598664451,-0.00031841130180081535,0.002285520335799125,-0.003931201109493868,0.004558435161955432
17515812,-0.00040796459779813415,0.0007300228435269743,-0.0005283922598664451,-0.00034611026162964883,0.0023350856008395736,-0.003967076565498874,0.004616287854216199
17516999,-0.00040796459779813415,0.0007300228435269743,-0.0005283922598664451,-0.00037385597075777145,0.0023847345203357865,-0.0040030125707967166,0.004674487850161654
17518174,-0.00040796459779813415,0.0007300228435269743,-0.0005283922598664451,-0.0004013211840901591,0.0024338815130974124,-0.004038585280337546,0.004732336524292832
17519367,-0.00040796459779813415,0.0007300228435269743,-0.0005283922598664451,-0.00042920714111614923,0.0024837813959609186,-0.004074702933513894,0.004791303871525308
17520578,-0.00040796459779813415,0.0007300228435269743,-0.0005283922598664451,-0.0004575138418357419,0.002534434168926305,-0.004111365530325762,0.004851391758665065
17521778,-0.00040796459779813415,0.0007300228435269743,-0.0005283922598664451,-0.00048556342140924414,0.002584626842384987,-0.004147695106027035,0.004911154899119784
17522935,-0.00040796459779813415,0.0007300228435269743,-0.0005283922598664451,-0.0005126078910480292,0.002633020945044733,-0.004182722871932346,0.004968977437098596
17524136,-0.00040796459779813415,0.0007300228435269743,-0.0005283922598664451,-0.0005406808452711761,0.0026832554457312968,-0.004219082722280036,0.0050292001929662464
17525328,-0.00040796459779813415,0.0007300228435269743,-0.0005283922598664451,-0.0005685434276475216,0.0027331135013669208,-0.004255170100809967,0.005089167282306846
17526525,-0.00040796459779813415,0.0007300228435269743,-0.0005283922598664451,-0.0005965228832720901,0.002783180693141956,-0.004291408852571986,0.005149575153435339
17527707,-0.00010253177151753334,0.00011916091625607111,8.247246137215412e-05,-0.000603466705120904,0.0027912507007266988,-0.004285823519648098,0.005150100560189634
17528906,-0.00010253177151753334,0.00011916091625607111,8.247246137215412e-05,-0.0006105103958118752,0.002799436774410376,-0.0042801578562168445,0.0051506621391283584
17530104,-0.00010253177151753334,0.00011916091625607111,8.247246137215412e-05,-0.0006175482118650725,0.002807616020676469,-0.004274496918109554,0.0051512520241650955
17531291,-0.00010253177151753334,0.00011916091625607111,8.247246137215412e-05,-0.0006245214069027562,0.0028157201653491335,-0.004268887958565852,0.0051518648507139705
17532480,-0.00010253177151753334,0.00011916091625607111,8.247246137215412e-05,-0.0006315063512159879,0.002823837964856967,-0.0042632695483742255,0.00515250699810186
17533672,-0.00010253177151753334,0.00011916091625607111,8.247246137215412e-05,-0.0006385089194425415,0.0028319762466175536,-0.004257636962210711,0.005153179174412294
17534876,-0.00010253177151753334,0.00011916091625607111,8.247246137215412e-05,-0.0006455819833223825,0.0028401964573891527,-0.004251947672159644,0.005153886981739139
17536078,-0.00010253177151753334,0.00011916091625607111,8.247246137215412e-05,-0.0006526432979266756,0.002848403013325583,-0.004246267832756502,0.005154622537892903
17537261,-0.00010253177151753334,0.00011916091625607111,8.247246137215412e-05,-0.0006595929944132635,0.00285647984832791,-0.004240677774508652,0.005155374674007132
17538454,-0.00010253177151753334,0.00011916091625607111,8.247246137215412e-05,-0.000666601437277591,0.002864624957506081,-0.004235040463021174,0.0051561614934730144
17539648,-0.00010253177151753334,0.00011916091625607111,8.247246137215412e-05,-0.0006736157547796925,0.0028727768941018365,-0.004229398426209734,0.005156977439934965
17540834,-0.00010253177151753334,0.00011916091625607111,8.247246137215412e-05,-0.0006805830751796024,0.0028808742113569166,-0.004223794191989995,0.005157816099878967
17542036,-0.00010253177151753334,0.00011916091625607111,8.247246137215412e-05,-0.0006876443897838954,0.002889080767293347,-0.004218114352586854,0.005158694716519363
17543284,-0.00010253177151753334,0.00011916091625607111,8.247246137215412e-05,-0.0006949759377257905,0.002897601384438659,-0.0042122171482814295,0.005159637452514935
17544542,-0.00010253177151753334,0.00011916091625607111,8.247246137215412e-05,-0.000702366232045425,0.002906190275759815,-0.004206272690736378,0.005160619167471405
17545716,-0.00010253177151753334,0.00011916091625607111,8.247246137215412e-05,-0.0007092630567920474,0.0029142056640038827,-0.0042007251604041914,0.0051615637755524375
17546897,-0.00010253177151753334,0.00011916091625607111,8.247246137215412e-05,-0.0007162010040030874,0.0029222688441710412,-0.004195144552804266,0.005162541708758496
17547971,-0.00010253177151753334,0.00011916091625607111,8.247246137215412e-05,-0.0007225103649723144,0.0029296014906566702,-0.004190069554868348,0.0051634551412968474
17549273,-0.00010253177151753334,0.00011916091625607111,8.247246137215412e-05,-0.0007301591433540029,0.002938490788351539,-0.004183917183068938,0.005164593254326019
17550506,-0.00010253177151753334,0.00011916091625607111,8.247246137215412e-05,-0.0007374025717292885,0.0029469089942330854,-0.004178090858622954,0.005165702120331129
17551680,-0.00010253177151753334,0.00011916091625607111,8.247246137215412e-05,-0.0007442993964759109,0.002954924382477153,-0.004172543328290767,0.005166785995589152
17552901,-0.00010253177151753334,0.00011916091625607111,8.247246137215412e-05,-0.0007514723291979092,0.002963260659347687,-0.004166773707732334,0.005167942291496421
17554101,-0.00010253177151753334,0.00011916091625607111,8.247246137215412e-05,-0.0007585218945266543,0.0029714535604489483,-0.0041611033189771175,0.005169107520412341
17555301,-0.00010253177151753334,0.00011916091625607111,8.247246137215412e-05,-0.0007655714598553995,0.00297964646155021,-0.004155432930221901,0.005170301300073951
17556479,-0.00010253177151753334,0.00011916091625607111,8.247246137215412e-05,-0.0007724917831531177,0.002987689159464615,-0.0041498664985938636,0.005171500945061613
17557675,-0.00010253177151753334,0.00011916091625607111,8.247246137215412e-05,-0.0007795178499307671,0.0029958547508955394,-0.004144215011134498,0.005172747028933135
17558854,-0.00010253177151753334,0.00011916091625607111,8.247246137215412e-05,-0.0007864440478662593,0.003003904276227529,-0.004138643854182498,0.005174003101364056
17560070,-0.00010253177151753334,0.00011916091625607111,8.247246137215412e-05,-0.0007935876073993877,0.0030122064160101407,-0.0041328978602438796,0.005175327381574907
17561252,-0.00010253177151753334,0.00011916091625607111,8.247246137215412e-05,-0.0008005314292482017,0.0030202764235948837,-0.004127312527319992,0.005176642632277199
17562461,-0.00010253177151753334,0.00011916091625607111,8.247246137215412e-05,-0.0008076338663169125,0.003028530771454405,-0.004121599610649111,0.005178016458661668
17563643,-0.00010253177151753334,0.00011916091625607111,8.247246137215412e-05,-0.0008145776881657265,0.003036600779039148,-0.004116014277725223,0.005179387476889181
17564836,-0.00010253177151753334,0.00011916091625607111,8.247246137215412e-05,-0.000821586131030054,0.003044745888217319,-0.004110376966237746,0.005180799175715559
17566044,-0.00010253177151753334,0.00011916091625607111,8.247246137215412e-05,-0.0008286826934609909,0.0030529934086592557,-0.004104668774890828,0.005182257183054735
17567263,-0.00010253177151753334,0.00011916091625607111,8.247246137215412e-05,-0.0008358438769074412,0.0030613160306946206,-0.004098908604980321,0.005183757573260274
17568450,-0.00010253177151753334,0.00011916091625607111,8.247246137215412e-05,-0.0008428170719451249,0.003069420175367285,-0.00409329964543662,0.005185246649586251
17569646,-0.00010253177151753334,0.00011916091625607111,8.247246137215412e-05,-0.0008498431387227743,0.0030775857667982094,-0.004087648157977255,0.005186775007251418
17570699,-0.00010253177151753334,0.00011916091625607111,8.247246137215412e-05,-0.0008560291322987482,0.0030847750375145666,-0.004082672391844552,0.0051881438652515086
17571673,-0.00010253177151753334,0.00011916091625607111,8.247246137215412e-05,-0.0008617510294905798,0.0030914249422417574,-0.004078069926304902,0.005189429384255556
17572890,-0.00010253177151753334,0.00011916091625607111,8.247246137215412e-05,-0.0008689004636614822,0.0030997339094419535,-0.00407231920704232,0.005191061745841714
17574084,-0.00010253177151753334,0.00011916091625607111,8.247246137215412e-05,-0.0008759147811635837,0.003107885846037709,-0.00406667717023088,0.005192691435348283
17575278,-0.00010253177151753334,0.00011916091625607111,8.247246137215412e-05,-0.0008829290986656852,0.0031160377826334644,-0.00406103513341944,0.005194349007424985
17576440,-0.00010253177151753334,0.00011916091625607111,8.247246137215412e-05,-0.0008897554277590201,0.0031239712418665196,-0.004055544306974805,0.005195988901746369
17577621,-0.00010253177151753334,0.00011916091625607111,8.247246137215412e-05,-0.0008966933749700602,0.003132034422033678,-0.00404996369937488,0.005197682617837809
17578802,-0.00010253177151753334,0.00011916091625607111,8.247246137215412e-05,-0.0009036313221811002,0.0031400976022008366,-0.004044383091774955,0.005199403534138253
17579990,-0.00010253177151753334,0.00011916091625607111,8.247246137215412e-05,-0.0009106103918565579,0.0031482085742910856,-0.004038769406907291,0.005201162065843299
17581217,-0.00010253177151753334,0.00011916091625607111,8.247246137215412e-05,-0.0009178185724051999,0.003156585815667126,-0.004032971434405083,0.005203007162617615
17582420,-0.00010253177151753334,0.00011916091625607111,8.247246137215412e-05,-0.0009248857616472669,0.0031647991990211405,-0.004027286869677979,0.005204844586815571
17583605,-0.00010253177151753334,0.00011916091625607111,8.247246137215412e-05,-0.0009318472074094028,0.0031728896888586363,-0.004021687360782203,0.005206681997539073
17584818,-0.00010253177151753334,0.00011916091625607111,8.247246137215412e-05,-0.0009389731430292094,0.003181171346388495,-0.004015955542815472,0.005208591039838284
17586027,-0.00010253177151753334,0.00011916091625607111,8.247246137215412e-05,-0.0009460755800979202,0.0031894256942480164,-0.004010242626144592,0.00521052216029585
17587252,-0.00010253177151753334,0.00011916091625607111,8.247246137215412e-05,-0.0009532720113710143,0.0031977892807888877,-0.004004454104290308,0.005212507696431646
17588437,-0.00010253177151753334,0.00011916091625607111,8.247246137215412e-05,-0.0009602334571331501,0.0032058797706263835,-0.003998854595394533,0.00521445600911709
17589661,-0.00010253177151753334,0.00011916091625607111,8.247246137215412e-05,-0.0009674240137684702,0.0032142365297496704,-0.003993070798864212,0.005216496918079717
17590842,-0.00010253177151753334,0.00011916091625607111,8.247246137215412e-05,-0.0009743619609795102,0.003222299709916829,-0.003987490191264287,0.005218493525622391
17592066,-0.00010253177151753334,0.00011916091625607111,8.247246137215412e-05,-0.0009815525176148302,0.003230656469040116,-0.003981706394733967,0.005220591190626989
17593250,-0.00010253177151753334,0.00011916091625607111,8.247246137215412e-05,-0.0009885080887391921,0.0032387401314600273,-0.003976111611162153,0.005222647740854348
17594452,-0.00010253177151753334,0.00011916091625607111,8.247246137215412e-05,-0.0009955694033434853,0.0032469466873964576,-0.003970431771759012,0.005224763122081416
17595635,-0.00010253177151753334,0.00011916091625607111,8.247246137215412e-05,-0.0010025190998300734,0.0032550235223987845,-0.003964841713511161,0.005226872151688006
17596833,-0.00010253177151753334,0.00011916091625607111,8.247246137215412e-05,-0.0010095569158832707,0.0032632027686648776,-0.00395918077540387,0.005229035273179696
17598015,-0.00010253177151753334,0.00011916091625607111,8.247246137215412e-05,-0.0010165007377320847,0.0032712727762496206,-0.003953595442479982,0.00523119644529244
17599230,-0.00010253177151753334,0.00011916091625607111,8.247246137215412e-05,-0.0010236384226274392,0.003279568088614648,-0.0039478541738653256,0.005233445810003634
17600521,-0.00010253177151753334,0.00011916091625607111,8.247246137215412e-05,-0.0010312225799936142,0.0032883822847160887,-0.003941753780629506,0.005235866778961273
17601732,-0.00010253177151753334,0.00011916091625607111,8.247246137215412e-05,-0.0010383367663378729,0.0032966502874107787,-0.0039360314133107,0.00523816663007041
17602938,-0.00010253177151753334,0.00011916091625607111,8.247246137215412e-05,-0.0010454215794932617,0.0033048841530175467,-0.0039303326726117084,0.005240484754403526
17604152,-0.00010253177151753334,0.00011916091625607111,8.247246137215412e-05,-0.0010525533897508422,0.0033131726379649895,-0.003924596129321015,0.005242846206548249
17605359,0.00020290105476306747,0.00011916091625607111,8.247246137215412e-05,-0.0010385215632161536,0.003321413330989342,-0.00391889266329806,0.005240995445427328
17606544,0.00020290105476306747,0.00011916091625607111,8.247246137215412e-05,-0.0010247454949115918,0.0033295038208268376,-0.003913293154402284,0.005239232991052592
17607598,0.00020290105476306747,0.00011916091625607111,8.247246137215412e-05,-0.0010124923506136948,0.0033366999189607793,-0.003908312662945619,0.005237710853090803
17608790,0.00020290105476306747,0.00011916091625607111,8.247246137215412e-05,-0.0009986349046904564,0.003344838200721366,-0.0039026800767821045,0.005236041065880121
17609959,0.00020290105476306747,0.00011916091625607111,8.247246137215412e-05,-0.0009850448423714415,0.0033528194518775115,-0.0038971561730697314,0.005234456787066477
17611163,0.00020290105476306747,0.00011916091625607111,8.247246137215412e-05,-0.0009710478919590429,0.0033610396626491106,-0.0038914668830186644,0.005232880289478209
17612380,0.00020290105476306747,0.00011916091625607111,8.247246137215412e-05,-0.0009568998116833876,0.0033693486298493067,-0.0038857161637560825,0.005231343760865117
17613543,0.00020290105476306747,0.00011916091625607111,8.247246137215412e-05,-0.0009433795016089528,0.0033772889164999462,-0.0038802206119874856,0.0052299289963881794
17614728,0.00020290105476306747,0.00011916091625607111,8.247246137215412e-05,-0.000929603433304391,0.003385379406337442,-0.0038746211030917096,0.005228541379829425
17615925,0.00020290105476306747,0.00011916091625607111,8.247246137215412e-05,-0.0009156878605106692,0.0033935518251859507,-0.0038689648903083816,0.005227195000241377
17617130,0.00020290105476306747,0.00011916091625607111,8.247246137215412e-05,-0.000901679284724174,0.0034017788633751342,-0.003863270874933352,0.0052258957912414234
17618326,0.00020290105476306747,0.00011916091625607111,8.247246137215412e-05,-0.0008877753373045488,0.0034099444548060585,-0.0038576193874739866,0.005224662053473312
17619517,0.00020290105476306747,0.00011916091625607111,8.247246137215412e-05,-0.000873929516755407,0.0034180759091490607,-0.0038519915266344343,0.005223488723279203
17620707,0.00020290105476306747,0.00011916091625607111,8.247246137215412e-05,-0.0008600953215803619,0.0034262005360744785,-0.003846368391118845,0.00522237148006532
17621889,0.00020290105476306747,0.00011916091625607111,8.247246137215412e-05,-0.0008463541293980902,0.0034342705436592215,-0.003840783058194957,0.005221316307169296
17623094,0.00020290105476306747,0.00011916091625607111,8.247246137215412e-05,-0.000832345553611595,0.003442497581848405,-0.0038350890428199276,0.005220296609198234
17624287,0.00020290105476306747,0.00011916091625607111,8.247246137215412e-05,-0.0008184764823142599,0.003450642691026576,-0.00382945173133245,0.005219342803058806
17625481,0.00020290105476306747,0.00011916091625607111,8.247246137215412e-05,-0.0008045957856428281,0.0034587946276223316,-0.00382380969452101,0.005218443755973246
17626662,0.00020290105476306747,0.00011916091625607111,8.247246137215412e-05,-0.0007908662188346531,0.00346685780778949,-0.003818229086921085,0.005217609203048365
17627867,0.00020290105476306747,0.00011916091625607111,8.247246137215412e-05,-0.0007768576430481578,0.0034750848459786736,-0.0038125350715460557,0.005216813793502855
17629067,0.00020290105476306747,0.00011916091625607111,8.247246137215412e-05,-0.000762907194132146,0.003483277747079935,-0.0038068646827908396,0.0052160780250338525
17630270,0.00020290105476306747,0.00011916091625607111,8.247246137215412e-05,-0.000748921869093844,0.00349149113043395,-0.0038011801180637354,0.005215396875585691
17631464,0.00020290105476306747,0.00011916091625607111,8.247246137215412e-05,-0.0007350411724224123,0.0034996430670297053,-0.0037955380812522955,0.005214776739995832
17632661,0.00020290105476306747,0.00011916091625607111,8.247246137215412e-05,-0.0007211255996286904,0.003507815485878214,-0.0037898818684689675,0.005214210984449774
17633849,0.00020290105476306747,0.00011916091625607111,8.247246137215412e-05,-0.0007073146552018387,0.003515926457968463,-0.0037842681836013034,0.005213704878943866
17635030,0.00020290105476306747,0.00011916091625607111,8.247246137215412e-05,-0.0006935850883936636,0.0035239896381356215,-0.0037786875760013783,0.005213256471875947
17636236,0.00020290105476306747,0.00011916091625607111,8.247246137215412e-05,-0.0006795648872330717,0.0035322235037423895,-0.003772988835302386,0.005212854886496143
17637433,0.00020290105476306747,0.00011916091625607111,8.247246137215412e-05,-0.0006656493144393499,0.003540395922590898,-0.003767332622519058,0.005212512579093518
17638625,0.00020290105476306747,0.00011916091625607111,8.247246137215412e-05,-0.0006517918685161114,0.003548534204351485,-0.0037617000363555433,0.005212227431994257
17639812,0.00020290105476306747,0.00011916091625607111,8.247246137215412e-05,-0.0006379925494633564,0.0035566383490241494,-0.003756091076811842,0.005211998754434379
17640998,0.00020290105476306747,0.00011916091625607111,8.247246137215412e-05,-0.000624204855784698,0.0035647356662792296,-0.0037504868425921032,0.005211825364388652
17642201,0.00020290105476306747,0.00011916091625607111,8.247246137215412e-05,-0.0006102195307463961,0.0035729490496332443,-0.003744802277864999,0.005211705756015235
17643388,0.00020290105476306747,0.00011916091625607111,8.247246137215412e-05,-0.0005964202116936411,0.003581053194305909,-0.0037391933183212977,0.0052116432841421406
17644594,0.00020290105476306747,0.00011916091625607111,8.247246137215412e-05,-0.0005824000105330492,0.003589287059912677,-0.0037334945776223054,0.0052116363199920844
17645832,0.00020290105476306747,0.00011916091625607111,8.247246137215412e-05,-0.0005680077974013636,0.003597739402882145,-0.003727644626556507,0.00521168841459801
17647070,0.00020290105476306747,0.00011916091625607111,8.247246137215412e-05,-0.000553615584269678,0.0036061917458516135,-0.003721794675490709,0.005211800526641974
17648278,0.00020290105476306747,0.00011916091625607111,8.247246137215412e-05,-0.0005395721323608927,0.0036144392662935503,-0.0037160864841437914,0.005211967771713607
17649500,0.00020290105476306747,0.00011916091625607111,8.247246137215412e-05,-0.000525365925214754,0.0036227823705816684,-0.003710312138261396,0.005212195086842389
17650548,0.00020290105476306747,0.00011916091625607111,8.247246137215412e-05,-0.0005131825331614369,0.0036299375042101035,-0.003705359998748507,0.005212436600778815
17651829,0.00020290105476306747,0.00011916091625607111,8.247246137215412e-05,-0.0004982904289435943,0.0036386834261357003,-0.003699306858752314,0.005212790199348459
17653023,0.00020290105476306747,0.00011916091625607111,8.247246137215412e-05,-0.00048440973227216244,0.0036468353627314557,-0.003693664821940874,0.005213177607604805
17654214,0.00020290105476306747,0.00011916091625607111,8.247246137215412e-05,-0.00047056391172302066,0.003654966817074458,-0.003688036961101322,0.005213619611688308
17655409,0.00020290105476306747,0.00011916091625607111,8.247246137215412e-05,-0.0004566715896774922,0.003663125581087798,-0.003682390198965919,0.005214118865261766
17656592,0.00020290105476306747,0.00011916091625607111,8.247246137215412e-05,-0.0004429187721211238,0.0036712024160901247,-0.0036768001407180683,0.005214668109610396
17657796,0.00020290105476306747,0.00011916091625607111,8.247246137215412e-05,-0.00042892182170872523,0.003679422626861724,-0.0036711108506670012,0.005215283278412109
17658978,0.00020290105476306747,0.00011916091625607111,8.247246137215412e-05,-0.00041518062952645356,0.003687492634446467,-0.0036655255177431133,0.005215942312320645
17660178,0.00020290105476306747,0.00011916091625607111,8.247246137215412e-05,-0.0004012301806104417,0.0036956855355477283,-0.0036598551289878972,0.005216667211991618
17661356,0.00020290105476306747,0.00011916091625607111,8.247246137215412e-05,-0.0003875354899245567,0.0037037282334621336,-0.00365428869735986,0.00521743351341899
17662510,0.00020290105476306747,0.00011916091625607111,8.247246137215412e-05,-0.00037411980821699194,0.0037116070733545134,-0.003648835673506927,0.005218236720400132
17663681,0.00020290105476306747,0.00011916091625607111,8.247246137215412e-05,-0.0003605064951497837,0.003719601979345828,-0.0036433023191466286,0.005219104866401688
17664872,0.00020290105476306747,0.00011916091625607111,8.247246137215412e-05,-0.00034666067460064194,0.00372773343368883,-0.0036376744583070763,0.005220042685704377
17666062,0.00020290105476306747,0.00011916091625607111,8.247246137215412e-05,-0.0003328264794255968,0.003735858060614248,-0.003632051322791487,0.005221034928618528
17667275,0.00020290105476306747,0.00011916091625607111,8.247246137215412e-05,-0.0003187249006463281,0.0037441397181441067,-0.003626319504824756,0.005222103114871317
17668464,0.00020290105476306747,0.00011916091625607111,8.247246137215412e-05,-0.0003049023308453797,0.00375225751765194,-0.0036207010946331295,0.005223205751912133
17669658,0.00020290105476306747,0.00011916091625607111,8.247246137215412e-05,-0.00029102163417394787,0.0037604094542476956,-0.0036150590578216896,0.005224368368204081
17670802,0.00020290105476306747,0.00011916091625607111,8.247246137215412e-05,-0.0002777222062073499,0.0037682200199642317,-0.0036096532872083834,0.005225534288140706
17671989,0.00020290105476306747,0.00011916091625607111,8.247246137215412e-05,-0.00026392288715459483,0.0037763241646368963,-0.003604044327664682,0.005226797777086515
17673018,0.00020290105476306747,0.00011916091625607111,8.247246137215412e-05,-0.00025196037720911466,0.003783349577331228,-0.003599181969307084,0.005227937347000341
17673972,0.00020290105476306747,0.00011916091625607111,8.247246137215412e-05,-0.00024086977032088523,0.003789862933706731,-0.003594674010246687,0.005229030554747374
17675236,0.00020290105476306747,0.00011916091625607111,8.247246137215412e-05,-0.00022617529746268606,0.003798492789533393,-0.0035887012007578593,0.00523053334236963
17676439,0.00020290105476306747,0.00011916091625607111,8.247246137215412e-05,-0.00021218997242438415,0.003806706172887408,-0.003583016636030755,0.005232021089901082
17677625,0.00020290105476306747,0.00011916091625607111,8.247246137215412e-05,-0.00019840227874572575,0.003814803490142488,-0.003577412401811016,0.005233542645784599
17678812,0.00020290105476306747,0.00011916091625607111,8.247246137215412e-05,-0.00018460295969297067,0.0038229076348151527,-0.003571803442267315,0.0052351199477421746
17679997,0.00020290105476306747,0.00011916091625607111,8.247246137215412e-05,-0.00017082689138840895,0.0038309981246526484,-0.003566203933371539,0.0052367488914696085
17681202,0.00020290105476306747,0.00011916091625607111,8.247246137215412e-05,-0.0001568183156019137,0.003839225162841832,-0.0035605099179965094,0.0052384609105401965
17682386,0.00020290105476306747,-0.0007971375625857244,8.247246137215412e-05,-0.00014305387267144864,0.003785148783097263,-0.0035549151344246963,0.005194731690244526
17683574,0.00020290105476306747,-0.0007971375625857244,8.247246137215412e-05,-0.0001292429282445969,0.0037308897128805842,-0.003549301449557032,0.005151095278094461
17684753,0.00020290105476306747,-0.0007971375625857244,8.247246137215412e-05,-0.00011553661218461523,0.003677041696226153,-0.0035437302926050324,0.005108033744139456
17685941,0.00020290105476306747,-0.0007971375625857244,8.247246137215412e-05,-0.00010172566775776348,0.003622782626009474,-0.0035381166077373682,0.005064895970969576
17687135,0.00020290105476306747,-0.0007971375625857244,8.247246137215412e-05,-8.784497108633168e-05,0.00356824952008463,-0.0035324745709259284,0.0050218022632086655
17688334,0.00020290105476306747,-0.0007971375625857244,8.247246137215412e-05,-7.390614754441648e-05,0.003513488051069649,-0.0035268089074946747,0.004978799199971599
17689522,0.00020290105476306747,-0.0007971375625857244,8.247246137215412e-05,-6.009520311756473e-05,0.00345922898085297,-0.0035211952226270105,0.00493646557480776
17690682,0.00020290105476306747,-0.0007971375625857244,8.247246137215412e-05,-4.660976916541993e-05,0.0034062487439410613,-0.0035157138468303014,0.004895400579010468
17691865,0.00020290105476306747,-0.0007971375625857244,8.247246137215412e-05,-3.285695160905156e-05,0.00335221803681452,-0.0035101237885824506,0.004853804111909137
17693063,0.00020290105476306747,-0.0007971375625857244,8.247246137215412e-05,-1.8929753441233046e-05,0.003297502240417566,-0.0035044628504751598,0.004811978723091437
17694250,0.00020290105476306747,-0.0007971375625857244,8.247246137215412e-05,-5.130434388477974e-06,0.0032432888428189145,-0.0034988538909314585,0.004770841371225507
17695446,0.00020290105476306747,-0.0007971375625857244,8.247246137215412e-05,8.773513031147186e-06,0.0031886643916580154,-0.003493202403472093,0.004729706186306069
17696609,0.00020290105476306747,-0.0007971375625857244,8.247246137215412e-05,2.229382310558202e-05,0.003135547136892024,-0.003487706851703496,0.004690016198867542
17697763,0.00020290105476306747,-0.0007971375625857244,8.247246137215412e-05,3.570950481314676e-05,0.00308284093568828,-0.003482253827850563,0.004650943466122684
17698937,0.00020290105476306747,-0.0007971375625857244,8.247246137215412e-05,4.9357694002645034e-05,0.0030292212821239864,-0.0034767062975183767,0.004611518669292589
17700117,0.00020290105476306747,-0.0007971375625857244,8.247246137215412e-05,6.307563543672337e-05,0.0029753275928515277,-0.003471130415242414,0.004572231313067
17701294,0.00020290105476306747,-0.0007971375625857244,8.247246137215412e-05,7.675870074851168e-05,0.002921570921433151,-0.0034655687089383395,0.00453339111741717
17702468,0.00020290105476306747,-0.0007971375625857244,8.247246137215412e-05,9.040688993800995e-05,0.0028679512678688574,-0.003460021178606153,0.0044950043867633726
17703660,0.00020290105476306747,-0.0007971375625857244,8.247246137215412e-05,0.0001042643358612484,0.0028135095071800684,-0.0034543885924426384,0.004456400716533809
17704819,0.00020290105476306747,-0.0007971375625857244,8.247246137215412e-05,0.00011773814443929653,0.002760574942886187,-0.003448911941969892,0.004419234081762316
17706026,0.00020290105476306747,-0.0007971375625857244,8.247246137215412e-05,0.00013176997097398514,0.0027054480929269856,-0.0034432084759469374,0.0043809242538082735
17707204,0.00020290105476306747,-0.0007971375625857244,8.247246137215412e-05,0.0001454646616598701,0.0026516457488905817,-0.0034376420443189,0.0043439346185538226
17708369,0.00020290105476306747,-0.0007971375625857244,8.247246137215412e-05,0.0001590082224824983,0.0025984371488885355,-0.0034321370419023774,0.004307751606805971
17709517,0.00020290105476306747,-0.0007971375625857244,8.247246137215412e-05,0.000172354151945483,0.002546004983392957,-0.0034267123699932207,0.004272494001847068
17710712,0.00020290105476306747,-0.0007971375625857244,8.247246137215412e-05,0.00018624647399101147,0.0024914262048500854,-0.003421065607857818,0.004236222630664655
17711873,0.00020290105476306747,-0.0007971375625857244,8.247246137215412e-05,0.00019974353331725294,0.0024384002953201493,-0.0034155795067371464,0.004201413672344371
17713068,0.00020290105476306747,-0.0007971375625857244,8.247246137215412e-05,0.00021363585536278142,0.0023838215167772776,-0.0034099327446017436,0.004166039681190529
17714250,0.00020290105476306747,-0.0007971375625857244,8.247246137215412e-05,0.00022737704754505311,0.0023298364822687636,-0.0034043474116778557,0.00413151541873663
17715456,0.00020290105476306747,-0.0007971375625857244,8.247246137215412e-05,0.00024139724870564505,0.0022747553049275895,-0.0033986486709788634,0.0040967788709820865
17716622,0.00020290105476306747,-0.0007971375625857244,8.247246137215412e-05,0.0002549524349023699,0.002221501032307516,-0.0033931389432383784,0.004063675610666637
17717825,0.00020290105476306747,-0.0007971375625857244,8.247246137215412e-05,0.00026893775994067177,0.0021665568728204245,-0.0033874543785112742,0.004030030194475288
17718990,0.00020290105476306747,-0.0007971375625857244,8.247246137215412e-05,0.00028248132076329994,0.0021133482728183783,-0.0033819493760947517,0.003997951750743408
17720162,0.00020290105476306747,-0.0007971375625857244,8.247246137215412e-05,0.00029610625920460486,0.0020598199644901393,-0.0033764112964104905,0.003966193445279828
17721344,0.00020290105476306747,-0.0007971375625857244,8.247246137215412e-05,0.00030984745138687653,0.0020058349299816253,-0.0033708259634866026,0.003934697813756568
17722533,0.00020290105476306747,-0.0007971375625857244,8.247246137215412e-05,0.00032367002118782496,0.0019515301871469188,-0.003365207553294976,0.0039035694217875736
17723704,0.00020290105476306747,-0.0007971375625857244,8.247246137215412e-05,0.0003372833342550332,0.0018980475514367074,-0.0033596741989346778,0.0038734681201822796
17724873,0.00020290105476306747,-0.0007971375625857244,8.247246137215412e-05,0.00035087339657404804,0.0018446562609625511,-0.0033541502952223047,0.003843981407924812
17726053,0.00020290105476306747,-0.0007971375625857244,8.247246137215412e-05,0.00036459133800812636,0.0017907625716900922,-0.003348574412946342,0.003814801178430615
17727253,0.00020290105476306747,-0.0007971375625857244,8.247246137215412e-05,0.00037854178692413824,0.0017359554300570832,-0.003342904024191126,0.00378574199524289
17728416,0.00020290105476306747,-0.0007971375625857244,8.247246137215412e-05,0.00039206209699857306,0.001682838175291092,-0.003337408472422529,0.003758184711255908
17729600,0.00020290105476306747,-0.0007971375625857244,8.247246137215412e-05,0.0004058265399290381,0.0016287617955465232,-0.003331813688850716,0.0037307563072861948
17730774,0.00020290105476306747,-0.0007971375625857244,8.247246137215412e-05,0.00041947472911853636,0.0015751421419822294,-0.0033262661585185295,0.00370419739931919
17731962,0.00020290105476306747,-0.0007971375625857244,8.247246137215412e-05,0.0004332856735453881,0.0015208830717655505,-0.0033206524736508654,0.003677982414809281
17733140,0.00020290105476306747,-0.0007971375625857244,8.247246137215412e-05,0.00044698036423127305,0.0014670807277291466,-0.003315086042022828,0.0036526583160346633
17734311,0.00020290105476306747,-0.0007971375625857244,8.247246137215412e-05,0.00046059367729848127,0.0014135980920189353,-0.0033095526876625297,0.003628160014903034
17735472,0.00020290105476306747,-0.0007971375625857244,8.247246137215412e-05,0.00047409073662472274,0.0013605721824889992,-0.003304066586541858,0.0036045491671800813
17736655,0.00020290105476306747,-0.0007971375625857244,8.247246137215412e-05,0.0004878435541810911,0.0013065414753624578,-0.0032984765282940073,0.003581199431462151
17737842,0.00020290105476306747,-0.0007971375625857244,8.247246137215412e-05,0.0005016428732338462,0.0012523280777638063,-0.003292867568750306,0.003558503619774673
17739032,0.00020290105476306747,-0.0007971375625857244,8.247246137215412e-05,0.0005154770684088913,0.0011979776623110723,-0.0032872444332347167,0.0035365015271146653
17740217,0.00020290105476306747,-0.0007971375625857244,8.247246137215412e-05,0.000529253136713453,0.0011438556099484759,-0.0032816449243389407,0.0035153531755104154
17741384,0.00020290105476306747,-0.0007971375625857244,8.247246137215412e-05,0.0005428199482842745,0.0010905556647103746,-0.003276130471274493,0.0034952819655788086
17742571,0.00020290105476306747,-0.0007971375625857244,8.247246137215412e-05,0.0005566192673370295,0.0010363422671117231,-0.0032705215117307916,0.00347564976113344
17743769,0.00020290105476306747,-0.0007971375625857244,8.247246137215412e-05,0.000570546465504848,0.0009816264707147692,-0.0032648605736235008,0.003456649875603426
17744937,0.00020290105476306747,-0.0007971375625857244,8.247246137215412e-05,0.0005841249024497662,0.0009282808528586404,-0.0032593413952350906,0.0034389262240034956
17746098,0.00020290105476306747,-0.0007971375625857244,8.247246137215412e-05,0.0005976219617760077,0.0008752549433287042,-0.003253855294114419,0.0034221042503194974
17747277,0.00020290105476306747,-0.0007971375625857244,8.247246137215412e-05,0.0006113282778359893,0.0008214069266742728,-0.003248284137162419,0.003405845187058771
17748553,0.00020290105476306747,-0.0007971375625857244,8.247246137215412e-05,0.0006261622551833486,0.0007631286660711732,-0.0032422546237860393,0.0033891974826288623
17749735,0.00020290105476306747,-0.0007971375625857244,8.247246137215412e-05,0.0006399034473656203,0.0007091436315626593,-0.0032366692908621514,0.0033746687556775678
17750916,0.00020290105476306747,-0.0007971375625857244,8.247246137215412e-05,0.0006536330141737953,0.000655204269672173,-0.0032310886832622263,0.003361021099505297
17751979,0.00020290105476306747,-0.0007971375625857244,8.247246137215412e-05,0.0006659907868385625,0.0006066542767089326,-0.0032260656638898972,0.0033494884396475305
17752949,0.00020290105476306747,-0.0007971375625857244,8.247246137215412e-05,0.0006772673997123388,0.0005623518372222503,-0.0032214820996460977,0.0033395924358940246
17754095,0.00020290105476306747,-0.0007971375625857244,8.247246137215412e-05,0.0006905900784271302,0.0005100110169627267,-0.003216066878384866,0.003328680227971669
17755311,0.00020290105476306747,-0.0007971375625857244,8.247246137215412e-05,0.0007047265333286889,0.00045447311344127753,-0.003210320884446247,0.0033180333751682205
17756496,0.00020290105476306747,-0.0007971375625857244,8.247246137215412e-05,0.0007185026016332506,0.00040035106107868114,-0.003204721375550471,0.00330858973817708
17757674,0.00020290105476306747,-0.0007971375625857244,8.247246137215412e-05,0.0007321972923191356,0.0003465487170422773,-0.0031991549439224338,0.0033001213982801407
17758880,0.00020290105476306747,-0.0007971375625857244,8.247246137215412e-05,0.0007462174934797274,0.0002914675397011032,-0.0031934562032234414,0.003292408904765758
17760053,0.00020290105476306747,-0.00018627191002452276,0.0003879052876527532,0.0007598540572951291,0.0002789485866033369,-0.0031673858842909677,0.0032691778541953853
17761234,0.00020290105476306747,-0.00018627191002452276,0.0003879052876527532,0.0007735836241033041,0.0002663442527512807,-0.0031411377626718276,0.0032459385897668203
17762401,0.00020290105476306747,-0.00018627191002452276,0.0003879052876527532,0.0007871504356741256,0.00025388933521923186,-0.0031152007957543537,0.0032231260603315824
17763605,0.00020290105476306747,-0.00018627191002452276,0.0003879052876527532,0.0008011473860865242,0.00024103953169859197,-0.003088441491411047,0.003199751245947728
17764803,0.00020290105476306747,-0.00018627191002452276,0.0003879052876527532,0.0008150745842543427,0.00022825376374366953,-0.0030618155390827405,0.003176658740552575
17766011,0.00020290105476306747,-0.00018627191002452276,0.0003879052876527532,0.0008291180361631279,0.00021536126984588464,-0.003034967333396101,0.003153544657876605
17767260,0.00020290105476306747,-0.00018627191002452276,0.0003879052876527532,0.000843638128409877,0.0002020311995823637,-0.0030072078889402955,0.003129830855592097
17768439,0.00020290105476306747,-0.00018627191002452276,0.0003879052876527532,0.0008573444444698586,0.00018944821091887993,-0.002981004217992822,0.003107622285409649
17769634,0.00020290105476306747,-0.00018627191002452276,0.0003879052876527532,0.0008712367665153871,0.00017669446074681624,-0.002954444941672015,0.003085290804633844
17770850,0.00020290105476306747,-0.00018627191002452276,0.0003879052876527532,0.0008853732214169458,0.0001637165860947414,-0.002927418933298709,0.003062755372666986
17772038,0.00020290105476306747,-0.00018627191002452276,0.0003879052876527532,0.0008991841658437976,0.00015103754408268144,-0.0029010152343287355,0.003040926486062125
17773254,0.00020290105476306747,-0.00018627191002452276,0.0003879052876527532,0.0009133206207453563,0.0001380596694306066,-0.0028739892259554293,0.003018779405572699
17774390,0.00020290105476306747,-0.00018627191002452276,0.0003879052876527532,0.0009265270457191808,0.0001259356023214314,-0.002848741244448788,0.00299827263940503
17775467,0.00020290105476306747,-0.00018627191002452276,0.0003879052876527532,0.0009390475736213015,0.00011444121827514471,-0.0028248045577563123,0.0029789978058879446
17776442,0.00020290105476306747,-0.00018627191002452276,0.0003879052876527532,0.0009503823133655612,0.00010403543884605509,-0.002803134855318834,0.0029616912282000815
17777703,0.00020290105476306747,-0.00018627191002452276,0.0003879052876527532,0.0009650419101014703,9.057729745109918e-05,-0.002775108706833029,0.0029395133049207865
17778862,0.00020290105476306747,-0.00018627191002452276,0.0003879052876527532,0.0009785157186795186,7.820776067334033e-05,-0.0027493495426022213,0.0029193376599734875
17780073,0.00020290105476306747,-0.00018627191002452276,0.0003879052876527532,0.0009925940467105938,6.52832489926967e-05,-0.002722434660908082,0.002898474655241625
17781262,0.00020290105476306747,-0.00018627191002452276,0.0003879052876527532,0.0010064166165115421,5.2593534386350494e-05,-0.002696008736602275,0.0028782118743562964
17782460,0.00020290105476306747,-0.00018627191002452276,0.0003879052876527532,0.0010203438146793606,3.980776643142807e-05,-0.0026693827842739683,0.002858022149564438
17783631,0.00020290105476306747,-0.00018627191002452276,0.0003879052876527532,0.0010339571277465688,2.731015852223428e-05,-0.002643356916013161,0.0028385117530514213
17784821,0.00020290105476306747,-0.00018627191002452276,0.0003879052876527532,0.0010477913229216139,1.460977132160182e-05,-0.002616908766371521,0.0028189167411117365
17786031,0.00020290105476306747,-0.00018627191002452276,0.0003879052876527532,0.0010618580255785926,1.6959322352444438e-06,-0.002590016110013215,0.0027992371805189713
17787233,0.00020290105476306747,-0.00018627191002452276,0.0003879052876527532,0.0010758317252427979,-1.1132526096822964e-05,-0.002563301256341575,0.002779937259173035
17788416,0.00020290105476306747,-0.00018627191002452276,0.0003879052876527532,0.0010895845427991663,-2.3758205137451705e-05,-0.002537008684050768,0.002761190321431544
17789615,0.00020290105476306747,-0.00018627191002452276,0.0003879052876527532,0.0011035233663410815,-3.655464568666038e-05,-0.0025103605063866285,0.002742445976534043
17790816,0.00020290105476306747,-0.00018627191002452276,0.0003879052876527532,0.00111748544063119,-4.937243142444154e-05,-0.002483667878050822,0.002723934190737529
17792036,0.00020290105476306747,-0.00018627191002452276,0.0003879052876527532,0.0011316683970291354,-6.239299645366137e-05,-0.0024565529683341827,0.0027054054655582483
17793221,0.00020290105476306747,-0.00018627191002452276,0.0003879052876527532,0.0011454444653336972,-7.504002068286261e-05,-0.002430215945371709,0.0026876799603015597
17794432,0.00020290105476306747,-0.00018627191002452276,0.0003879052876527532,0.0011595227933647724,-8.796453236350622e-05,-0.0024033010636775698,0.002669847724114638
17795630,0.00020290105476306747,-0.00018627191002452276,0.0003879052876527532,0.0011734499915325909,-0.00010075030031842865,-0.002376675111349263,0.002652493183883631
17796818,0.00020290105476306747,-0.00018627191002452276,0.0003879052876527532,0.0011872609359594426,-0.00011342934233048862,-0.0023502714123792897,0.0026355702338591094
17798015,0.00020290105476306747,-0.00018627191002452276,0.0003879052876527532,0.0012011765087531646,-0.0001262044376911248,-0.0023236676853868165,0.00261881348655919
17799230,0.00020290105476306747,-0.00018627191002452276,0.0003879052876527532,0.0012153013382806266,-0.0001391716397489134,-0.0022966639023493437,0.0026021128277789185
17800425,0.00020290105476306747,-0.00018627191002452276,0.0003879052876527532,0.001229193660326155,-0.0001519253899209771,-0.002270104626028537,0.0025859956287288682
17801629,0.00020290105476306747,-0.00018627191002452276,0.0003879052876527532,0.0012431906107385536,-0.00016477519344161698,-0.0022433453216852304,0.0025700723708349596
17802834,0.00020290105476306747,-0.00018627191002452276,0.0003879052876527532,0.001257199186525049,-0.00017763566955654312,-0.002216563792006091,0.0025544587038608528
17804037,0.00020290105476306747,-0.00018627191002452276,0.0003879052876527532,0.0012711845115633508,-0.00019047480048289678,-0.002189826712998618,0.002539199036117469
17805220,0.00020290105476306747,-0.00018627191002452276,0.0003879052876527532,0.0012849373291197192,-0.00020310047952352552,-0.002163534140707811,0.002524518513015163
17806419,0.00020290105476306747,-0.00018627191002452276,0.0003879052876527532,0.0012988761526616344,-0.00021589692007273418,-0.002136885963043671,0.0025099745733977185
17807607,0.00020290105476306747,-0.00018627191002452276,0.0003879052876527532,0.0013126870970884862,-0.00022857596208479414,-0.0021104822640736977,0.002495902596712305
17808800,0.00020290105476306747,-0.00018627191002452276,0.0003879052876527532,0.0013265561683858213,-0.00024130836706828533,-0.002083967438424558,0.002482116290650671
17809963,0.00020290105476306747,-0.00018627191002452276,0.0003879052876527532,0.0013400764784602562,-0.00025372059422318913,-0.0020581193728504174,0.002469014876617313
17811162,0.00020290105476306747,-0.00018627191002452276,0.0003879052876527532,0.0013540153020021714,-0.0002665170347723978,-0.0020314711951862777,0.0024558631852673444
17812354,0.00020290105476306747,-0.00018627191002452276,0.0003879052876527532,0.0013678727479254098,-0.00027923876716160276,-0.002004978594872971,0.0024431515117777154
17813550,0.00020290105476306747,-0.00018627191002452276,0.0003879052876527532,0.001381776695345035,-0.0002920031899279527,-0.001978397093216331,0.002430766907207183
17814750,0.00020290105476306747,-0.00018627191002452276,0.0003879052876527532,0.0013957271442610467,-0.00030481030307144764,-0.001951726690216358,0.002418718804530304
17815944,0.00020290105476306747,-0.00018627191002452276,0.0003879052876527532,0.0014096078409324786,-0.00031755338064922507,-0.0019251896392313847,0.0024071122869081005
17817129,0.00020290105476306747,-0.00018627191002452276,0.0003879052876527532,0.0014233839092370403,-0.0003302004048784263,-0.0018988526162689113,0.0023959748159711703
17818351,0.00020290105476306747,-0.00018627191002452276,0.0003879052876527532,0.001437590116383179,-0.00034324231509621865,-0.0018716932558806053,0.0023848933464002443
17819540,0.00020290105476306747,-0.00018627191002452276,0.0003879052876527532,0.0014514126861841273,-0.0003559320297025649,-0.0018452673315747987,0.0023745100379576395
17820703,0.00020290105476306747,-0.00018627191002452276,0.0003879052876527532,0.0014649329962585621,-0.0003683442568574687,-0.0018194192660006582,0.002364739444543805
17821884,0.00020290105476306747,-0.00018627191002452276,0.0003879052876527532,0.001478662563066737,-0.00038094859070952495,-0.0017931711443815181,0.002355212847540788
17823095,0.00020290105476306747,-0.00018627191002452276,0.0003879052876527532,0.0014927408910978123,-0.0003938731023901686,-0.0017662562626873785,0.002345862863473552
17824266,0.00020290105476306747,-0.00018627191002452276,0.0003879052876527532,0.0015063542041650205,-0.0004063707102993624,-0.0017402303944265714,0.002337229549762047
17825477,0.00020290105476306747,-0.00018627191002452276,0.0003879052876527532,0.0015204325321960957,-0.000419295221980006,-0.0017133155127324318,0.0023287278961495457
17826676,0.00020290105476306747,-0.00018627191002452276,0.0003879052876527532,0.001534371355738011,-0.0004320916625292147,-0.0016866673350682919,0.0023207424159787608
17827879,0.00020290105476306747,-0.00018627191002452276,0.0003879052876527532,0.0015483566807763128,-0.00044493079345556835,-0.0016599302560608188,0.0023131667205058474
17829071,0.00020290105476306747,-0.00018627191002452276,0.0003879052876527532,0.0015622141266995512,-0.0004576525258447733,-0.0016334376557475122,0.002306095702109015
17830274,0.00020290105476306747,-0.00018627191002452276,0.0003879052876527532,0.001576199451737853,-0.0004704916567711269,-0.0016067005767400392,0.0022994029342520033
17831468,0.00020290105476306747,-0.00018627191002452276,0.0003879052876527532,0.0015900801484092849,-0.00048323473434890436,-0.0015801635257550659,0.0022932046256218023
17832662,0.00020290105476306747,-0.00018627191002452276,0.0003879052876527532,0.0016039608450807168,-0.0004959778119266818,-0.0015536264747700926,0.002287452645538738
17833847,0.00020290105476306747,-0.00018627191002452276,0.0003879052876527532,0.0016177369133852785,-0.000508624836155883,-0.0015272894518076191,0.0022821886456835124
17835054,0.00020290105476306747,-0.00018627191002452276,0.0003879052876527532,0.0016317687399199671,-0.0005215066574593816,-0.0015004634714568129,0.0022772854549947584
17836241,0.00020290105476306747,-0.00018627191002452276,0.0003879052876527532,0.0016455680589727221,-0.0005341750268771552,-0.001474081997822673,0.0022729177135029205
17837459,-0.00010253177151753334,-0.00018627191002452276,8.247246137215412e-05,0.0016384127501640458,-0.0005471742467178025,-0.0014683265532361286,0.0022671080395758815
17838644,-0.00010253177151753334,-0.00018627191002452276,8.247246137215412e-05,0.0016314513044019098,-0.0005598212709470037,-0.0014627270443403526,0.002261548942712511
17839839,-0.00010253177151753334,-0.00018627191002452276,8.247246137215412e-05,0.0016244311122620345,-0.0005725750211190674,-0.0014570802822049499,0.002256036688993516
17841028,-0.00010253177151753334,-0.00018627191002452276,8.247246137215412e-05,0.001617446167948803,-0.0005852647357254136,-0.0014514618720133231,0.0022506462367516637
17842214,-0.00010253177151753334,-0.00018627191002452276,8.247246137215412e-05,0.001610478847548893,-0.0005979224325489011,-0.0014458576377935845,0.0022453635924975825
17843457,-0.00010253177151753334,-0.00018627191002452276,8.247246137215412e-05,0.0016031766727958678,-0.0006111884672467046,-0.0014399840601079731,0.0022399287667372926
17844632,-0.00010253177151753334,-0.00018627191002452276,8.247246137215412e-05,0.0015962739734114715,-0.0006237287655330434,-0.001434431804451824,0.0022348876420901203
17845823,-0.00010253177151753334,-0.00018627191002452276,8.247246137215412e-05,0.001589277279822692,-0.000636439825327962,-0.001428803943612272,0.0022298741293414037
17847013,-0.00010253177151753334,-0.00018627191002452276,8.247246137215412e-05,0.0015822864608716863,-0.0006491402125285945,-0.0014231808080966827,0.0022249622631213867
17848216,-0.00010253177151753334,-0.00018627191002452276,8.247246137215412e-05,0.0015752192716296193,-0.0006619793434549482,-0.0014174962433695785,0.0022200963953939615
17849397,-0.00010253177151753334,-0.00018627191002452276,8.247246137215412e-05,0.0015682813244185792,-0.0006745836773070045,-0.0014119156357696532,0.0022154176158774123
17850680,-0.00010253177151753334,-0.00018627191002452276,8.247246137215412e-05,0.0015607441641545957,-0.0006882766157762578,-0.0014058530451255345,0.00221044561802723
17851932,-0.00010253177151753334,-0.00018627191002452276,8.247246137215412e-05,0.001553389117661605,-0.0007016387038226375,-0.001399936939524259,0.0022057057954804307
17853147,-0.00010253177151753334,-0.00018627191002452276,8.247246137215412e-05,0.0015462514327662504,-0.0007146059058804261,-0.0013941956709096026,0.002201212543766263
17854198,-0.00010253177151753334,-0.00018627191002452276,8.247246137215412e-05,0.0015400771884658243,-0.0007258228024752704,-0.0013892293554248257,0.00219741090581619
17855174,-0.00010253177151753334,-0.00018627191002452276,8.247246137215412e-05,0.001534343541998445,-0.0007362392544986462,-0.00138461743923725,0.002193951639799058
17856408,-0.00010253177151753334,-0.00018627191002452276,8.247246137215412e-05,0.0015270942389853852,-0.0007494092358478735,-0.0013787863894673027,0.0021896764430611036
17857618,-0.00010253177151753334,-0.00018627191002452276,8.247246137215412e-05,0.0015199859272789005,-0.0007623230749342309,-0.0013730687474724597,0.0021855917905658113
17858831,-0.00010253177151753334,-0.00018627191002452276,8.247246137215412e-05,0.001512859991659094,-0.000775268931803447,-0.0013673369295057287,0.002181604352253764
17860034,-0.00010253177151753334,-0.00018627191002452276,8.247246137215412e-05,0.0015057928024170269,-0.0007881080627298007,-0.0013616523647786245,0.002177756516431041
17861225,-0.00010253177151753334,-0.00018627191002452276,8.247246137215412e-05,0.0014987961088282474,-0.0008008191225247194,-0.0013560245039390725,0.002174052321845812
17862414,-0.00010253177151753334,-0.00018627191002452276,8.247246137215412e-05,0.0014918111645150158,-0.0008135088371310655,-0.0013504060937474457,0.002170459351541102
17863613,-0.00010253177151753334,-0.00018627191002452276,8.247246137215412e-05,0.0014847674738240446,-0.0008263052776802742,-0.0013447404303161923,0.0021669429360680194
17864807,-0.00010253177151753334,-0.00018627191002452276,8.247246137215412e-05,0.001477753156321943,-0.0008390483552580517,-0.0013390983935047522,0.0021635482525166187
17866025,-0.00010253177151753334,-0.00018627191002452276,8.247246137215412e-05,0.0014705978475132667,-0.000852047575098699,-0.0013333429489182078,0.0021601959445319142
17867224,-0.00010253177151753334,-0.00018627191002452276,8.247246137215412e-05,0.0014635541568222955,-0.0008648440156479077,-0.0013276772854869544,0.002157005543746197
17868413,-0.00010253177151753334,-0.00018627191002452276,8.247246137215412e-05,0.001456569212509064,-0.0008775337302542539,-0.0013220588752953276,0.00215394962529544
17869612,-0.00010253177151753334,-0.00018627191002452276,8.247246137215412e-05,0.0014495255218180928,-0.0008903301708034626,-0.0013163932118640741,0.0021509772522476265
17870786,-0.00010253177151753334,-0.00018627191002452276,8.247246137215412e-05,0.0014426286970714705,-0.000902859796495515,-0.0013108456815318877,0.0021481735894784784
17871968,-0.00010253177151753334,-0.00018627191002452276,8.247246137215412e-05,0.0014356848752226565,-0.0009154748029418575,-0.0013052603486079998,0.0021454579355962224
17873162,-0.00010253177151753334,-0.00018627191002452276,8.247246137215412e-05,0.001428670557720555,-0.000928217880519635,-0.0012996183117965597,0.0021428242467759376
17874368,-0.00010253177151753334,-0.00018627191002452276,8.247246137215412e-05,0.0014215857445651662,-0.0009410890292288474,-0.0012939195710975674,0.002140276254728605
17875555,-0.00010253177151753334,-0.00018627191002452276,8.247246137215412e-05,0.0014146125495274823,-0.0009537573986466211,-0.0012883106115538661,0.002137878872292841
17876780,-0.00010253177151753334,-0.00018627191002452276,8.247246137215412e-05,0.0014074161182543884,-0.0009668313266472722,-0.001282522089699583,0.0021355200431455003
17877850,-0.00010253177151753334,-0.00018627191002452276,8.247246137215412e-05,0.0014011302558362573,-0.0009782510025335553,-0.0012774659930595152,0.00213355580691043
17878835,-0.00010253177151753334,-0.00018627191002452276,8.247246137215412e-05,0.0013953437376289124,-0.0009887635079055073,-0.0012728115489562754,0.0021318270708156188
17880012,-0.00010253177151753334,-0.00018627191002452276,8.247246137215412e-05,0.0013884292889689682,-0.0010013251513804186,-0.0012672498426522009,0.002129861524361601
17881190,-0.00010253177151753334,-0.00018627191002452276,8.247246137215412e-05,0.00138150896567125,-0.001013897467449616,-0.0012616834110241637,0.0021280037890906967
17882394,-0.00010253177151753334,-0.00018627191002452276,8.247246137215412e-05,0.001374435901791409,-0.001026747270970256,-0.0012559941209730969,0.0021262185302778763
17883618,-0.00010253177151753334,-0.00018627191002452276,8.247246137215412e-05,0.0013672453451560888,-0.0010398105263766208,-0.0012502103244427763,0.002124521503764537
17884819,-0.00010253177151753334,-0.00018627191002452276,8.247246137215412e-05,0.0013601899051895697,-0.001052628312114402,-0.0012445352103635974,0.0021229721692662836
17886009,-0.00010253177151753334,-0.00018627191002452276,8.247246137215412e-05,0.001353199086238564,-0.0010653286993150344,-0.001238912074848008,0.002121550408023657
17887223,-0.00010253177151753334,-0.00018627191002452276,8.247246137215412e-05,0.0013460672759809836,-0.0010782852287785367,-0.0012331755315573142,0.002120216507270074
17888415,-0.00010253177151753334,-0.00018627191002452276,8.247246137215412e-05,0.00133906470775443,-0.0010910069611677416,-0.0012275429453937996,0.002119021510899786
17889611,-0.00010253177151753334,-0.00018627191002452276,8.247246137215412e-05,0.0013320386409767806,-0.0011037713839340915,-0.0012218914579344342,0.002117936954684956
17890799,-0.00010253177151753334,-0.00018627191002452276,8.247246137215412e-05,0.0013250595713013228,-0.0011164504259461513,-0.00121627777306677,0.0021169733211235443
17891987,-0.00010253177151753334,-0.00018627191002452276,8.247246137215412e-05,0.001318080501625865,-0.0011291294679582112,-0.001210664088199106,0.0021161231293648436
17893178,-0.00010253177151753334,-0.00018627191002452276,8.247246137215412e-05,0.0013110838080370856,-0.00114184052775313,-0.001205036227359554,0.0021153847999277856
17894382,-0.00010253177151753334,-0.00018627191002452276,8.247246137215412e-05,0.0013040107441572445,-0.0011546903312737698,-0.0011993469373084871,0.0021147545621291153
17895605,-0.00010253177151753334,-0.00018627191002452276,8.247246137215412e-05,0.0012968260621596985,-0.0011677429140858483,-0.0011935678661021292,0.002114234045673735
17896819,-0.00010253177151753334,-0.00018627191002452276,8.247246137215412e-05,0.001289694251902118,-0.0011806994435493506,-0.0011878313228114354,0.0021138367228428676
17898007,-0.00010253177151753334,-0.00018627191002452276,8.247246137215412e-05,0.0012827151822266602,-0.0011933784855614105,-0.0011822176379437713,0.0021135631033827613
17899199,-0.00010253177151753334,-0.00018627191002452276,8.247246137215412e-05,0.0012757126140001066,-0.0012061002179506153,-0.0011765850517802567,0.0021134031308134888
17900396,-0.00010253177151753334,-0.00018627191002452276,8.247246137215412e-05,0.0012686806725846834,-0.0012188753133112514,-0.0011709288389969285,0.0021133579972130185
17901596,-0.00010253177151753334,-0.00018627191002452276,8.247246137215412e-05,0.0012616311072559381,-0.0012316824264547463,-0.0011652584502417124,0.002113428945172516
17902803,-0.00010253177151753334,-0.00018627191002452276,8.247246137215412e-05,0.0012545404194627752,-0.001244564247758245,-0.0011595549842187574,0.002113617655180436
17904007,-0.00010253177151753334,-0.00018627191002452276,8.247246137215412e-05,0.0012474673555829341,-0.0012574140512788849,-0.0011538656941676906,0.0021139231158620085
17905200,-0.00010253177151753334,-0.00018627191002452276,8.247246137215412e-05,0.0012404589127186067,-0.0012701464562623762,-0.001148228382680213,0.002114341210233419
17906401,-0.00010253177151753334,-0.00018627191002452276,8.247246137215412e-05,0.0012334034727520876,-0.0012829642420001573,-0.0011425532686010341,0.002114878092098657
17907624,-0.00010253177151753334,-0.00018627191002452276,8.247246137215412e-05,0.0012262187907545415,-0.0012960168248122358,-0.0011367741973946762,0.002115544305576754
17908825,-0.00010253177151753334,-0.00018627191002452276,8.247246137215412e-05,0.0012191633507880224,-0.0013088346105500168,-0.0011310990833154973,0.002116315772741736
17909995,-0.00010253177151753334,-0.00018627191002452276,8.247246137215412e-05,0.0012122900245924958,-0.0013213215458649243,-0.0011255704542791616,0.0021171789198930605
17911197,-0.00010253177151753334,-0.00018627191002452276,8.247246137215412e-05,0.0012052287099882026,-0.0013341500041969918,-0.00111989061487602,0.0021181802251853004
17912409,-0.00010253177151753334,-0.00018627191002452276,8.247246137215412e-05,0.00119810864900617,-0.0013470851884719217,-0.0011141635222332517,0.0021193072439122714
17913635,-0.00010253177151753334,-0.00018627191002452276,8.247246137215412e-05,0.001190906343095302,-0.001360169789066859,-0.001108370275055006,0.002120567009019125
17914810,-0.00040796459779813415,0.0007300228435269743,-0.00022295943358584605,0.0011634411297629145,-0.001311022796305233,-0.001123380470647844,0.0020819125141775217
17916008,-0.00040796459779813415,0.0007300228435269743,-0.00022295943358584605,0.0011354382994887013,-0.0012609137773023154,-0.0011386844828352655,0.0020434593309352654
17917223,-0.00040796459779813415,0.0007300228435269743,-0.00022295943358584605,0.0011070381001705304,-0.0012100936954254,-0.0011542056638099876,0.0020055051287165863
17918434,-0.00040796459779813415,0.0007300228435269743,-0.00022295943358584605,0.0010787313994509377,-0.0011594409224600134,-0.0011696757462465214,0.001968782881933318
17919635,-0.00040796459779813415,0.0007300228435269743,-0.00022295943358584605,0.001050658445227791,-0.0011092064217734492,-0.0011850180823375842,0.0019335174967139508
17920820,-0.00040796459779813415,0.0007300228435269743,-0.00022295943358584605,0.0010229594853989575,-0.0010596411567330008,-0.0012001560242758933,0.001899910516949646
17922000,-0.00040796459779813415,0.0007300228435269743,-0.00022295943358584605,0.000995377398818347,-0.0010102850278319636,-0.001215230093041467,0.0018676820346550916
17923188,-0.00040796459779813415,0.0007300228435269743,-0.00022295943358584605,0.0009676083150405798,-0.0009605942811078685,-0.0012304063588834174,0.0018365475850664914
17924360,-0.00040796459779813415,0.0007300228435269743,-0.00022295943358584605,0.000940213225657126,-0.0009115727700298892,-0.0012453782305726143,0.0018071891881993758
17925550,-0.00040796459779813415,0.0007300228435269743,-0.00022295943358584605,0.0009123973925800696,-0.0008617983688500296,-0.001260580045683659,0.0017788275582853153
17926746,-0.00040796459779813415,0.0007300228435269743,-0.00022295943358584605,0.0008844413116051457,-0.0008117730043028766,-0.0012758585086019862,0.0017518638012587718
17927927,-0.00040796459779813415,0.0007300228435269743,-0.00022295943358584605,0.0008568358503748905,-0.0007623750481739573,-0.001290945352002107,0.0017268246264232363
17929091,-0.00040796459779813415,0.0007300228435269743,-0.00022295943358584605,0.0008296277581885934,-0.0007136881549190358,-0.0013058150266149272,0.001703756403762613
17930278,-0.00040796459779813415,0.0007300228435269743,-0.00022295943358584605,0.0008018820490604707,-0.000664039235422823,-0.0013209785178223306,0.0016819474341769507
17931456,-0.00040796459779813415,0.0007300228435269743,-0.00022295943358584605,0.0007743467117791494,-0.0006147667609775503,-0.00133602703731881,0.0016620828032600803
17932661,-0.00040796459779813415,0.0007300228435269743,-0.00022295943358584605,0.0007461802589574242,-0.0005643649513794572,-0.001351420471948061,0.0016436636119363432
17933839,-0.00040796459779813415,0.0007300228435269743,-0.00022295943358584605,0.0007186449216761029,-0.0005150924769341845,-0.0013664689914445406,0.0016275774291334055
17935025,-0.00040796459779813415,0.0007300228435269743,-0.00022295943358584605,0.0006909225871976249,-0.0004654853846658539,-0.0013816197080173968,0.0016133578903700983
17936178,-0.00040796459779813415,0.0007300228435269743,-0.00022295943358584605,0.0006639716161574181,-0.00041725859091763703,-0.0013963488616501988,0.0016014846805976859
17937367,-0.00040796459779813415,0.0007300228435269743,-0.00022295943358584605,0.0006361791577300063,-0.00036752601696565974,-0.0014115379021266965,0.0015913008964419451
17938563,-0.00040796459779813415,0.0007300228435269743,-0.00022295943358584605,0.0006082230767550824,-0.00031750065241850677,-0.0014268163650450237,0.001583207792724597
17939748,-0.00040796459779813415,0.0007300228435269743,-0.00022295943358584605,0.000580524116926249,-0.0002679353873780584,-0.001441954306983333,0.0015773489929531179
17940946,-0.00040796459779813415,0.0007300228435269743,-0.00022295943358584605,0.0005525212866520359,-0.00021782636837514098,-0.0014572583191707544,0.0015736358879218204
17942137,-0.00040796459779813415,0.0007300228435269743,-0.00022295943358584605,0.000524682078925335,-0.00016801013996739917,-0.0014724729089163461,0.0015721625738357476
17943315,-0.00040796459779813415,0.0007300228435269743,-0.00022295943358584605,0.0004971467416440136,-0.00011873766552212645,-0.0014875214284128255,0.001572887000368506
17944499,-0.00040796459779813415,0.0007300228435269743,-0.00022295943358584605,0.00046947115646482477,-6.92142277095603e-05,-0.0015026465957165877,0.0015757983905590528
17945667,-0.00040796459779813415,0.0007300228435269743,-0.00022295943358584605,0.00044216956567994924,-2.0360025543109926e-05,-0.0015175673688675962,0.0015808033320136412
17946874,-0.00040796459779813415,0.0007300228435269743,-0.00022295943358584605,0.0004139563635589349,3.012543851074761e-05,-0.0015329863527659415,0.0015881796405769171
17948050,-0.00040796459779813415,0.0007300228435269743,-0.00022295943358584605,0.0003864677755769027,7.931425850025588e-05,-0.001548009322993327,0.0015974920836220325
17949240,-0.00040796459779813415,0.0007300228435269743,-0.00022295943358584605,0.0003586519424998463,0.00012908865968011543,-0.0015632111381043716,0.0016090134120666883
17950412,-0.00040796459779813415,0.0007300228435269743,-0.00022295943358584605,0.00033125685311639246,0.00017811017075809477,-0.0015781830097935684,0.0016223797175954646
17951603,-0.00040796459779813415,0.0007300228435269743,-0.00022295943358584605,0.0003034176453896915,0.00022792639916583655,-0.0015933975995391602,0.0016379647802036792
17952852,-0.00040796459779813415,0.0007300228435269743,-0.00022295943358584605,0.0002742227079836046,0.00028016860679074793,-0.0016093531180884834,0.0016564148032742446
17954086,-0.00040796459779813415,0.0007300228435269743,-0.00022295943358584605,0.00024537839032218645,0.00033178340599742583,-0.0016251170171196004,0.0016766920117493457
17955275,-0.00040796459779813415,0.0007300228435269743,-0.00022295943358584605,0.00021758593189477463,0.0003815159799494031,-0.001640306057596098,0.0016980877607773175
17956339,-0.00040796459779813415,0.0007300228435269743,-0.00022295943358584605,0.00019271530467293596,0.00042602015041610106,-0.0016538982687542086,0.0017187238988865862
17957329,-0.00040796459779813415,0.0007300228435269743,-0.00022295943358584605,0.0001695744015247966,0.00046742910601951364,-0.001666545156955834,0.0017391429518529061
17958981,-0.00040796459779813415,0.0007300228435269743,-0.00022295943358584605,0.00013095948031194185,0.0005365276864809657,-0.0016876488532276371,0.001775717037042994
17960210,-0.00040796459779813415,0.0007300228435269743,-0.00022295943358584605,0.00010223203589874663,0.0005879333495482324,-0.0017033488790860185,0.0018048585586019207
17961388,-0.00040796459779813415,0.0007300228435269743,-0.00022295943358584605,7.469669861742525e-05,0.0006372058239935051,-0.0017183973985824981,0.0018342574733037566
17962572,-0.00040796459779813415,0.0007300228435269743,-0.00022295943358584605,4.702111343823638e-05,0.0006867292618060713,-0.0017335225658862603,0.0018651832485218622
17963753,-0.00040796459779813415,0.0007300228435269743,-0.00022295943358584605,1.9415652207981256e-05,0.0007361272179349906,-0.0017486094092863812,0.0018973389562174277
17965055,-0.00040796459779813415,0.0007300228435269743,-0.00022295943358584605,-1.1018141629268682e-05,0.0007905862686376605,-0.0017652419834667007,0.0019342252474303073
17966256,-0.00040796459779813415,0.0007300228435269743,-0.00022295943358584605,-3.909109585241552e-05,0.0008408207693242247,-0.0017805843195577635,0.0019695147115360444
17967436,-0.00040796459779813415,0.0007300228435269743,-0.00022295943358584605,-6.667318243302606e-05,0.0008901768982252619,-0.0017956583883233371,0.0020053052812341716
17968599,-0.00040796459779813415,0.0007300228435269743,-0.00022295943358584605,-9.385789996967865e-05,0.0009388219642523011,-0.0018105152883016102,0.0020416076006723547
17969789,-0.00040796459779813415,0.0007300228435269743,-0.00022295943358584605,-0.00012167373304673503,0.0009885963654321607,-0.0018257171034126549,0.00207975244025646
17970966,-0.00040796459779813415,0.0007300228435269743,-0.00022295943358584605,-0.00014918569567841183,0.0010378270126495512,-0.0018407528482745873,0.0021184221317790157
17972154,-0.00040796459779813415,0.0007300228435269743,-0.00022295943358584605,-0.00017695477945617904,0.0010875177593736463,-0.0018559291141165377,0.002158351395753448
17973340,-0.00040796459779813415,0.0007300228435269743,-0.00022295943358584605,-0.0002046771139346571,0.001137124851641977,-0.001871079830689394,0.0021990646607144273
17974522,-0.00040796459779813415,0.0007300228435269743,-0.00022295943358584605,-0.00023230594981455682,0.0011865646349987786,-0.0018861794487240618,0.0022404407156044175
17975686,-0.00040796459779813415,0.0007300228435269743,-0.00022295943358584605,-0.000259514042000854,0.0012352515282537,-0.0019010491233368819,0.0022819249868014173
17976861,-0.00040796459779813415,0.0007300228435269743,-0.00022295943358584605,-0.0002869792553332416,0.0012843985210153261,-0.00191605931892972,0.0023245042412169095
17978069,-0.00040796459779813415,0.0007300228435269743,-0.00022295943358584605,-0.0003152158321039005,0.0013349258122970658,-0.0019314910774626123,0.002368975670509011
17979258,-0.00040796459779813415,0.0007300228435269743,-0.00022295943358584605,-0.00034300829053131234,0.0013846583862490431,-0.00194668011793911,0.0024133994728520276
17980300,-0.00040796459779813415,0.0007300228435269743,-0.00022295943358584605,-0.0003673646754609701,0.0014282423577023319,-0.0019599912871371846,0.002452834866591173
17981281,-0.00040796459779813415,0.0007300228435269743,-0.00022295943358584605,-0.0003902952067623082,0.0014692748682548042,-0.001972523203627886,0.0024903708108948808
17982509,-0.00040796459779813415,0.0007300228435269743,-0.00022295943358584605,-0.00041899927652585883,0.0015206387040941887,-0.0019882104548517203,0.0025378895316581713
17983678,-0.00040796459779813415,0.0007300228435269743,-0.00022295943358584605,-0.00044632424196037893,0.0015695347334885213,-0.002003144002637276,0.0025836467451821033
17984878,-0.00040796459779813415,0.0007300228435269743,-0.00022295943358584605,-0.00047437382153388117,0.0016197274069472032,-0.0020184735640937914,0.002631118188967965
17986069,-0.00040796459779813415,0.0007300228435269743,-0.00022295943358584605,-0.0005022130292605822,0.001669543635354945,-0.002033688153839383,0.0026787089024714753
17987266,-0.00040796459779813415,0.0007300228435269743,-0.00022295943358584605,-0.0005301924848851507,0.00171961082712998,-0.0020489793913922574,0.002726991385054513
17988456,-0.00040796459779813415,0.0007300228435269743,-0.00022295943358584605,-0.000558008317962207,0.0017693852283098396,-0.002064181206503302,0.002775417342014981
17989654,-0.00040796459779813415,0.0007300228435269743,-0.00022295943358584605,-0.0005860111482364201,0.0018194942473127571,-0.0020794852186907234,0.0028245755710574975
17990859,-0.00040796459779813415,0.0007300228435269743,-0.00022295943358584605,-0.0006141776010581452,0.0018698960569108502,-0.0020948786533199746,0.002874411585251492
17992055,-0.00040796459779813415,0.0007300228435269743,-0.00022295943358584605,-0.0006421336820330692,0.001919921421458003,-0.002110157116238302,0.0029242429764617392
17993255,-0.00040796459779813415,0.0007300228435269743,-0.00022295943358584605,-0.0006701832616065715,0.001970114094916685,-0.0021254866776948176,0.0029745905210944858
17994468,-0.00040796459779813415,0.0007300228435269743,-0.00022295943358584605,-0.0006985367116254533,0.002020850522337836,-0.0021409823094004454,0.0030258214785884624
17995665,-0.00040796459779813415,0.0007300228435269743,-0.00022295943358584605,-0.0007265161672500217,0.002070917714112871,-0.0021562735469533197,0.003076693278374169
17996856,-0.00040796459779813415,0.0007300228435269743,-0.00022295943358584605,-0.0007543553749767227,0.002120733942520613,-0.0021714881366989114,0.00312760694693873
17998047,-0.00040796459779813415,0.0007300228435269743,-0.00022295943358584605,-0.0007821945827034237,0.0021705501709283546,-0.002186702726444503,0.003178802482628878
17999236,-0.00040796459779813415,0.0007300228435269743,-0.00022295943358584605,-0.0008099870411308355,0.002220282744880332,-0.0022018917669210008,0.0032301798444123375
18000445,-0.00040796459779813415,0.0007300228435269743,-0.00022295943358584605,-0.000838246992551139,0.002270851863389954,-0.00221733630008844,0.0032826828164890603
18001640,-0.00040796459779813415,0.0007300228435269743,-0.00022295943358584605,-0.0008661796988764183,0.0023208354007092247,-0.0022326019883722203,0.003334824712996829
18002824,-0.00040796459779813415,0.0007300228435269743,-0.00022295943358584605,-0.0008938552840556072,0.002370358838521791,-0.0022477271556759822,0.003386717534509742
18003993,-0.00040796459779813415,0.0007300228435269743,-0.00022295943358584605,-0.0009211802494901273,0.0024192548679161235,-0.002262660703461538,0.003438168208068886
18005165,-0.00040796459779813415,0.0007300228435269743,-0.00022295943358584605,-0.0009485753388735811,0.0024682763789941027,-0.0022776325751507347,0.0034899561034498895
18006366,-0.00040796459779813415,0.0007300228435269743,-0.00022295943358584605,-0.000976648293096728,0.0025185108796806667,-0.0022929749112417974,0.00354322916039352
18007526,-0.00040796459779813415,0.0007300228435269743,-0.00022295943358584605,-0.0010037628866844468,0.0025670304640240593,-0.0023077934873164292,0.0035948708065816214
18008740,-0.00040796459779813415,0.0007300228435269743,-0.00022295943358584605,-0.0010321397113529733,0.0026178087186730925,-0.0023233018936566043,0.0036491048985170353
18009922,-0.00040796459779813415,0.0007300228435269743,-0.00022295943358584605,-0.001059768547232873,0.0026672485020298943,-0.002338401511691272,0.0037020866514932923
18011122,-0.00040796459779813415,0.0007300228435269743,-0.00022295943358584605,-0.0010878181268063752,0.002717441175488576,-0.0023537310731477877,0.003756046429951406
18012176,-0.00040796459779813415,0.0007300228435269743,-0.00022295943358584605,-0.001112455007531768,0.002761527073676452,-0.0023671955379604274,0.00380357761027303
18013299,-0.00040796459779813415,0.0007300228435269743,-0.00022295943358584605,-0.0011387047390826373,0.0028084990505882015,-0.0023815414525568167,0.0038543553404182286
18014483,-0.00040796459779813415,0.0007300228435269743,-0.00022295943358584605,-0.0011663803242618262,0.0028580224884007677,-0.0023966666198605787,0.003908036142589212
18015680,-0.00040796459779813415,0.0007300228435269743,-0.00022295943358584605,-0.0011943597798863947,0.002908089680175803,-0.002411957857413453,0.003962451460610435
18016861,-0.00040796459779813415,0.0007300228435269743,-0.00022295943358584605,-0.0012219652411166499,0.0029574876363047224,-0.0024270447008135736,0.004016276652465542
18018046,-0.00040796459779813415,0.0007300228435269743,-0.00022295943358584605,-0.0012496642009454833,0.003007052901345171,-0.0024421826427518827,0.00407041568235625
18019263,-0.00040796459779813415,0.0007300228435269743,-0.00022295943358584605,-0.0012781111495629434,0.0030579566376778508,-0.002457729372995699,0.004126148395227802
18020462,-0.00040796459779813415,0.0007300228435269743,-0.00022295943358584605,-0.001306137354486801,0.0031081074839086503,-0.002473046159817668,0.00418118215686708
18021642,-0.00040796459779813415,0.0007300228435269743,-0.00022295943358584605,-0.0013337194410674115,0.0031574636128096877,-0.0024881202285832417,0.0042354605753782545
18022831,-0.00040796459779813415,0.0007300228435269743,-0.00022295943358584605,-0.0013615118994948232,0.003207196186761665,-0.0025033092690597393,0.004290265647883004
18024023,-0.00040796459779813415,0.0007300228435269743,-0.00022295943358584605,-0.0013893744818711687,0.003257054242397289,-0.0025185366334398783,0.00434531823492499
18025213,-0.00040796459779813415,0.0007300228435269743,-0.00022295943358584605,-0.001417190314948225,0.0033068286435771485,-0.0025337384485509228,0.004400383459703321
18026420,-0.00040796459779813415,0.0007300228435269743,-0.00022295943358584605,-0.0014454035170692395,0.0033573141076310062,-0.002549157432449268,0.004456338514954363
18027621,-0.00040796459779813415,0.0007300228435269743,-0.00022295943358584605,-0.0014734764712923862,0.00340754860831757,-0.002564499768540331,0.004512114747249086
18028813,-0.00040796459779813415,0.0007300228435269743,-0.00022295943358584605,-0.0015013390536687318,0.003457406663953194,-0.0025797271329204697,0.004567567391330417
18029984,-0.00040796459779813415,0.0007300228435269743,-0.00022295943358584605,-0.001528710768402541,0.003506386347803291,-0.0025946862299751194,0.004622131376920575
18031169,-0.00040796459779813415,0.0007300228435269743,-0.00022295943358584605,-0.0015564097282313744,0.0035559516128437396,-0.0026098241719134285,0.004677433625752787
18032357,-0.00040796459779813415,0.0007300228435269743,-0.00022295943358584605,-0.0015841788120091417,0.0036056423595678348,-0.002625000437755379,0.0047329596059700885
18033541,-0.00040796459779813415,0.0007300228435269743,-0.00022295943358584605,-0.0016118543971883306,0.003655165797380401,-0.002640125605059141,0.004788379142733348
18034717,-0.00040796459779813415,0.0007300228435269743,-0.00022295943358584605,-0.0016393429851703628,0.003704354617369909,-0.0026551485752865263,0.0048435010592652
18035902,-0.00040796459779813415,0.0007300228435269743,-0.00022295943358584605,-0.0016670419449991963,0.0037539198824103575,-0.0026702865172248355,0.0048991196570419915
18037117,-0.00040796459779813415,0.0007300228435269743,-0.00022295943358584605,-0.0016954421443173672,0.003804739964287273,-0.0026858076981995573,0.004956221671019184
18038329,-0.00040796459779813415,0.0007300228435269743,-0.00022295943358584605,-0.0017237722196866046,0.0038554345644805418,-0.002701290555270638,0.005013256128540502
18039519,-0.00040796459779813415,0.0007300228435269743,-0.00022295943358584605,-0.001751588052763661,0.0039052089656604013,-0.0027164923703816824,0.005069324271577098
18040715,-0.00040796459779813415,0.0007300228435269743,-0.00022295943358584605,-0.0017795441337385848,0.003955234330207554,-0.00273177083330001,0.005125741684521806
18041899,-0.00040796459779813415,0.0007300228435269743,-0.00022295943358584605,-0.0018072197189177737,0.00400475776802012,-0.0027468960006037718,0.005181656639637147
18043119,-0.00040796459779813415,0.0007300228435269743,-0.00022295943358584605,-0.0018357367914841676,0.0040557869860364465,-0.0027624810547512294,0.005239335761484528
18044319,-0.00040796459779813415,0.0007300228435269743,-0.00022295943358584605,-0.00186378637105767,0.004105979659495129,-0.002777810616207745,0.005296130702753143
18045511,-0.00040796459779813415,0.0007300228435269743,-0.00022295943358584605,-0.0018916489534340154,0.004155837715130753,-0.002793037980587884,0.005352605350531426
18046693,-0.00040796459779813415,0.0007300228435269743,-0.00022295943358584605,-0.001919277789313915,0.0042052774984875545,-0.0028081375986225517,0.005408661834930807
18047866,-0.00040796459779813415,0.0007300228435269743,-0.00022295943358584605,-0.0019466962533470134,0.004254340836793416,-0.002823122244946296,0.0054643445598089825
18049080,-0.00040796459779813415,0.0007300228435269743,-0.00022295943358584605,-0.0019750730780155397,0.00430511909144245,-0.002838630651286471,0.0055220275288545145
18050285,-0.00040796459779813415,0.0007300228435269743,-0.00022295943358584605,-0.0020032395308372647,0.004355520901040542,-0.002854024085915722,0.0055793354819635285
18051491,-0.00040796459779813415,0.0007300228435269743,-0.00022295943358584605,-0.0020314293583086345,0.004405964537866518,-0.0028694302951795202,0.00563674187502227
18052679,-0.00040796459779813415,0.0007300228435269743,-0.00022295943358584605,-0.0020591984420864017,0.004455655284590613,-0.0028846065610214707,0.0056933397273375
18053879,-0.00040796459779813415,0.0007300228435269743,-0.00022295943358584605,-0.002087248021659904,0.004505847958049295,-0.002899936122477986,0.00575055646345924
18055133,-0.00040796459779813415,0.0007300228435269743,-0.00022295943358584605,-0.0021165598323142137,0.0045582993018136175,-0.002915955514200045,0.005810397112889457
18056358,-0.00040796459779813415,0.0007300228435269743,-0.00022295943358584605,-0.0021451937781288306,0.004609537655969356,-0.002931604441520238,0.0058689009489906446
18057535,-0.00040796459779813415,0.0007300228435269743,-0.00022295943358584605,-0.0021727057407605072,0.004658768303186746,-0.0029466401863821705,0.005925154911621597
18058728,-0.00040796459779813415,0.0007300228435269743,-0.00022295943358584605,-0.0022005916977864974,0.0047086681860502525,-0.0029618803253968562,0.005982214888205006
18059783,-0.00040796459779813415,0.0007300228435269743,-0.00022295943358584605,-0.0022252519531615346,0.00475279591146601,-0.0029753575648440427,0.006032708170446497
18060994,-0.00040796459779813415,0.0007300228435269743,-0.00022295943358584605,-0.0022535586538811273,0.004803448684431396,-0.0029908276472805765,0.006090705696894745
18062217,-0.00040796459779813415,0.0007300228435269743,-0.00022295943358584605,-0.002282145850396455,0.00485460338413137,-0.0030064510253316754,0.006149317967662706
18063393,-0.00040796459779813415,0.0007300228435269743,-0.00022295943358584605,-0.0023096344383784872,0.004903792204120878,-0.0030214739955590608,0.006205714650705448
18064552,-0.00040796459779813415,0.0007300228435269743,-0.00022295943358584605,-0.0023367256573165614,0.004952269961236388,-0.0030362797969991453,0.006261330495365257
18065648,-0.00040796459779813415,0.0007300228435269743,-0.00022295943358584605,-0.002362344273327027,0.004998112602995318,-0.0030502807964627628,0.006313953832204598
18066822,-0.00040796459779813415,0.0007300228435269743,-0.00022295943358584605,-0.00238978611200977,0.005047217768529061,-0.003065278217421054,0.006370354418264831
18068237,-0.00040796459779813415,0.0007300228435269743,-0.00022295943358584605,-0.002422861241256858,0.005106403295982423,-0.0030833543253051955,0.0064383759684398
18069481,0.00020290105476306747,0.0004245937425366719,-0.00022295943358584605,-0.002408399275880592,0.005136666618224463,-0.0030992459706817833,0.006464600266499931
18070665,0.00020290105476306747,0.0004245937425366719,-0.00022295943358584605,-0.002394634832950127,0.005165470294699201,-0.003114371137985545,0.006489658460482748
18072019,0.00020290105476306747,0.0004245937425366719,-0.00022295943358584605,-0.002378894076423227,0.005198409634181292,-0.0031316679931623135,0.006518431112697875
18073389,0.00020290105476306747,0.0004245937425366719,-0.00022295943358584605,-0.0023629673139107803,0.005231738212534663,-0.0031491692424918355,0.006547668758341607
18074600,0.00020290105476306747,0.0004245937425366719,-0.00022295943358584605,-0.002348888985879705,0.005261198729604687,-0.0031646393249283693,0.006573616477804592
18075961,0.00020290105476306747,0.0004245937425366719,-0.00022295943358584605,-0.002333066851734128,0.005294308361092964,-0.0031820256025469674,0.006602892464084497
18077291,0.00020290105476306747,0.0004245937425366719,-0.00022295943358584605,-0.002317605104185548,0.005326663842268134,-0.0031990158664946056,0.006631616968851403
18078578,0.00020290105476306747,0.0004245937425366719,-0.00022295943358584605,-0.0023026432477231255,0.005357973243976739,-0.003215456821156719,0.006659519936014818
18079695,0.00020290105476306747,0.0004245937425366719,-0.00022295943358584605,-0.0022896577048571376,0.0053851469826779914,-0.0032297260879458256,0.006683821589002461
18081019,0.00020290105476306747,0.0004245937425366719,-0.00022295943358584605,-0.0022742657095531377,0.005417356499276432,-0.0032466397040861812,0.006712727115416702
18082215,0.00020290105476306747,0.0004245937425366719,-0.00022295943358584605,-0.0022603617621335128,0.00544645210490463,-0.0032619181670045087,0.006738930623991424
18083277,0.00020290105476306747,0.0004245937425366719,-0.00022295943358584605,-0.0022480156148428423,0.005472287834985857,-0.003275484828893525,0.006762271010379803
18084493,0.00020290105476306747,0.0004245937425366719,-0.00022295943358584605,-0.0022338791599412836,0.0055018699892031555,-0.003291018784502794,0.006789079033216843
18085640,0.00020290105476306747,0.0004245937425366719,-0.00022295943358584605,-0.0022205448558523955,0.005529773550788058,-0.0033056712903283135,0.006814446247461973
18087002,0.00020290105476306747,0.0004245937425366719,-0.00022295943358584605,-0.002204711096332722,0.0055629075097057895,-0.003323070342581459,0.0068446685443181365
18088360,0.00020290105476306747,0.0004245937425366719,-0.00022295943358584605,-0.002188923838309435,0.0055959441589057005,-0.0033404182962964157,0.006874908944396426
18089528,0.00020290105476306747,0.0004245937425366719,-0.00022295943358584605,-0.0021753454013645167,0.005624358596509158,-0.003355339069447424,0.006901002645146901
18090913,0.00020290105476306747,0.0004245937425366719,-0.00022295943358584605,-0.0021592442582406197,0.005658052086304355,-0.0033730319382951524,0.006932043972367552
18092150,0.00020290105476306747,0.0004245937425366719,-0.00022295943358584605,-0.002144863670483031,0.005688145116540209,-0.0033888341612299104,0.0069598586195480285
18093364,0.00020290105476306747,0.0004245937425366719,-0.00022295943358584605,-0.0021307504663296657,0.005717678615898598,-0.0034043425675700854,0.006987237982338793
18094720,0.00020290105476306747,0.0004245937425366719,-0.00022295943358584605,-0.0021149864590545723,0.005750666610239599,-0.0034216649720159482,0.007017914602275358
18096082,0.00020290105476306747,0.0004245937425366719,-0.00022295943358584605,-0.0020991526995348987,0.00578380056915733,-0.0034390640242690936,0.007048826316683597
18097377,0.00020290105476306747,0.0004245937425366719,-0.00022295943358584605,-0.0020840978400797024,0.005815304590301575,-0.0034556071760075834,0.00707830857196001
18098594,0.00020290105476306747,0.0004245937425366719,-0.00022295943358584605,-0.002069949759804047,0.00584491107194833,-0.0034711539062513997,0.007106095051994545
18099792,0.00020290105476306747,0.0004245937425366719,-0.00022295943358584605,-0.0020560225616362286,0.005874055332435438,-0.003486457918438821,0.00713352252674057
18101048,0.00020290105476306747,0.0004245937425366719,-0.00022295943358584605,-0.002041421091770803,0.005904610583830938,-0.003502502859429974,0.007162356630392693
18102409,0.00020290105476306747,0.0004245937425366719,-0.00022295943358584605,-0.002025598957625226,0.005937720215319214,-0.003519889137048572,0.007193691126928887
18103755,0.00020290105476306747,0.0004245937425366719,-0.00022295943358584605,-0.0020099512040910993,0.005970464935365665,-0.003537083795148964,0.007224771080190956
18104971,0.00020290105476306747,0.0004245937425366719,-0.00022295943358584605,-0.0019958147491895405,0.006000047089582964,-0.003552617750758233,0.007252925924983516
18106327,0.00020290105476306747,0.0004245937425366719,-0.00022295943358584605,-0.001980050741914447,0.006033035083923965,-0.003569940155204096,0.007284407043552141
18107620,0.00020290105476306747,0.0004245937425366719,-0.00022295943358584605,-0.0019650191332074443,0.0060644904502093,-0.0035864577576734916,0.007314507766222379
18108859,0.00020290105476306747,0.0004245937425366719,-0.00022295943358584605,-0.001950615294701662,0.006094632135304064,-0.003602285529877344,0.007343425762637539
18110241,0.00020290105476306747,0.0004245937425366719,-0.00022295943358584605,-0.0019345490277000552,0.0061282526428108955,-0.003619940074821431,0.007375766166303819
18111594,0.00020290105476306747,0.0004245937425366719,-0.00022295943358584605,-0.0019188198965472518,0.006161167654863532,-0.0036372241553636526,0.0074075134980020815
18112895,0.00020290105476306747,0.0004245937425366719,-0.00022295943358584605,-0.0019036952848474756,0.006192817640584507,-0.003653843954909425,0.007438119501185318
18114248,0.00020290105476306747,0.0004245937425366719,-0.00022295943358584605,-0.0018879661536946723,0.006225732652637143,-0.0036711280354516465,0.007470029739719115
18115444,0.00020290105476306747,0.0004245937425366719,-0.00022295943358584605,-0.001874062206275047,0.006254828258265342,-0.003686406498369974,0.007498305046115924
18116749,0.00020290105476306747,0.0004245937425366719,-0.00022295943358584605,-0.0018588910930788841,0.006286575553704137,-0.0037030773964539347,0.007529229076903328
18118099,0.00020290105476306747,0.0004245937425366719,-0.00022295943358584605,-0.0018431968380483708,0.006319417583468408,-0.003720323153092515,0.007561297345130493
18119276,0.00020290105476306747,0.0004245937425366719,-0.00022295943358584605,-0.0018295137727365825,0.0063480509679369615,-0.0037353588979544476,0.00758931998486595
18120613,0.00020290105476306747,0.0004245937425366719,-0.00022295943358584605,-0.0018139706475693259,0.0063805767411183175,-0.0037524385843439156,0.00762122328690192
18121945,0.00020290105476306747,0.0004245937425366719,-0.00022295943358584605,-0.0017984856492725527,0.006412980877152398,-0.003769454397560648,0.007653081785571807
18123125,0.00020290105476306747,0.0004245937425366719,-0.00022295943358584605,-0.0017847677078384743,0.006441687243909316,-0.0037845284663262217,0.007681366156597438
18124277,0.00020290105476306747,0.0004245937425366719,-0.00022295943358584605,-0.001771375276879103,0.0064697124426414945,-0.003799244845324477,0.007709034366036599
18125402,0.00020290105476306747,0.0004245937425366719,-0.00022295943358584605,-0.0017582967310203418,0.006497080800778387,-0.0038136163091899602,0.007736105976515549
18126835,0.00020290105476306747,0.0004245937425366719,-0.00022295943358584605,-0.0017416375699398044,0.006531942007187424,-0.0038319223604959493,0.0077706625706663104
18128097,0.00020290105476306747,0.0004245937425366719,-0.00022295943358584605,-0.0017269663478297985,0.006562643223159654,-0.003848043949294385,0.0078011628028596515
18129318,0.00020290105476306747,0.0004245937425366719,-0.00022295943358584605,-0.0017127717660577564,0.006592347014524228,-0.00386364177807639,0.00783073138805108
18130492,0.00020290105476306747,0.0004245937425366719,-0.00022295943358584605,-0.001699123576868258,0.006620907416704416,-0.0038786391990346812,0.007859216117802686
18131654,0.00020290105476306747,0.0004245937425366719,-0.00022295943358584605,-0.00168561489216792,0.006649175889731144,-0.003893483324378407,0.00788746156722763
18132832,0.00020290105476306747,0.0004245937425366719,-0.00022295943358584605,-0.001671920201482035,0.006677833601629152,-0.0039085318438748864,0.007916148049762277
18134008,0.00020290105476306747,0.0004245937425366719,-0.00022295943358584605,-0.0016582487615443434,0.00670644265866825,-0.003923554814102272,0.007944837598619227
18135075,0.00020290105476306747,0.0004245937425366719,-0.00022295943358584605,-0.0016458444873831896,0.006732400025896752,-0.003937185349164023,0.007970912285241638
18136317,0.00020290105476306747,0.0004245937425366719,-0.00022295943358584605,-0.0016314057727551173,0.0067626146932798815,-0.003953051445271517,0.00800131601763778
18137503,0.00020290105476306747,0.0004245937425366719,-0.00022295943358584605,-0.0016176180790764588,0.00679146702461353,-0.003968202161844373,0.00803040104810677
18138683,0.00020290105476306747,0.0004245937425366719,-0.00022295943358584605,-0.0016039001376423805,0.006820173391370448,-0.003983276230609946,0.008059388951355363
18139839,0.00020290105476306747,0.0004245937425366719,-0.00022295943358584605,-0.0015904612051866223,0.0068482958998204455,-0.003998043708146389,0.008087835128694832
18141047,0.00020290105476306747,0.0004245937425366719,-0.00022295943358584605,-0.0015764177532778371,0.006877683434602104,-0.004013475466679282,0.008117610958963618
18142231,0.00020290105476306747,0.0004245937425366719,-0.00022295943358584605,-0.0015626533103473722,0.006906487111076842,-0.004028600633983044,0.00814684433703865
18143417,0.00020290105476306747,0.0004245937425366719,-0.00022295943358584605,-0.0015488656166687137,0.006935339442410491,-0.0040437513505559,0.008176175320103885
18144615,0.00020290105476306747,0.0004245937425366719,-0.00022295943358584605,-0.0015349384185008952,0.006964483702897599,-0.004059055362743321,0.008205851548397132
18145807,0.00020290105476306747,0.0004245937425366719,-0.00022295943358584605,-0.0015210809725776568,0.0069934819988079775,-0.00407428272712346,0.008235426979417981
18146980,0.00020290105476306747,-0.00018627191002452276,8.247246137215412e-05,-0.0015074444087622553,0.006980963045710211,-0.004068739922115236,0.00821954245958341
18148177,0.00020290105476306747,-0.00018627191002452276,8.247246137215412e-05,-0.0014935288359685334,0.006968187950349575,-0.004063083709331908,0.008203348153303312
18149381,0.00020290105476306747,-0.00018627191002452276,8.247246137215412e-05,-0.0014795318855561348,0.006955338146828935,-0.004057394419280841,0.008187074740755845
18150569,0.00020290105476306747,-0.00018627191002452276,8.247246137215412e-05,-0.001465720941129283,0.006942659104816874,-0.004051780734413177,0.008171033009523541
18151759,0.00020290105476306747,-0.00018627191002452276,8.247246137215412e-05,-0.001451886745954238,0.0069299587176162416,-0.004046157598897588,0.00815497972198948
18152956,0.00020290105476306747,-0.00018627191002452276,8.247246137215412e-05,-0.001437971173160516,0.006917183622255605,-0.00404050138611426,0.008138847695468509
18154137,0.00020290105476306747,-0.00018627191002452276,8.247246137215412e-05,-0.001424241606352341,0.0069045792884035485,-0.004034920778514335,0.008122946817011858
18155340,0.00020290105476306747,-0.00018627191002452276,8.247246137215412e-05,-0.0014102562813140393,0.006891740157477195,-0.00402923621378723,0.008106765670948183
18156527,0.00020290105476306747,-0.00018627191002452276,8.247246137215412e-05,-0.0013964569622612842,0.006879071788059421,-0.004023627254243529,0.008090815595093883
18157788,0.00020290105476306747,-0.00018627191002452276,8.247246137215412e-05,-0.001381797365525375,0.0068656136466644655,-0.004017668620726589,0.008073888521066495
18159008,0.00020290105476306747,-0.00018627191002452276,8.247246137215412e-05,-0.0013676144091274297,0.006852593081635246,-0.004011903725492119,0.008057528939888814
18160245,0.00020290105476306747,-0.00018627191002452276,8.247246137215412e-05,-0.0013532338213698408,0.00683939108250316,-0.004006058499750284,0.008040958702676222
18161302,0.00020290105476306747,-0.00018627191002452276,8.247246137215412e-05,-0.0013409458009496537,0.006828110150342598,-0.0040010638323217315,0.008026813543157034
18162276,0.00020290105476306747,-0.00018627191002452276,8.247246137215412e-05,-0.0013296226865794907,0.006817715043507795,-0.003996461366782081,0.008013790511319912
18163536,0.00020290105476306747,-0.00018627191002452276,8.247246137215412e-05,-0.0013149747152176783,0.006804267574707125,-0.003990507458589104,0.007996959766494257
18164723,0.00020290105476306747,-0.00018627191002452276,8.247246137215412e-05,-0.0013011753961649233,0.006791599205289351,-0.003984898499045403,0.007981121050614768
18165927,0.00020290105476306747,-0.00018627191002452276,8.247246137215412e-05,-0.0012871784457525247,0.006778749401768711,-0.003979209208994336,0.007965072362014977
18167148,0.00020290105476306747,-0.00018627191002452276,8.247246137215412e-05,-0.0012729838639804825,0.006765718164145205,-0.003973439588435903,0.0079488145252955
18168364,0.00020290105476306747,-0.00018627191002452276,8.247246137215412e-05,-0.0012588474090789237,0.00675274028949313,-0.003967693594497284,0.007932640838743631
18169557,0.00020290105476306747,-0.00018627191002452276,8.247246137215412e-05,-0.0012449783377815886,0.006740007884509639,-0.003962056283009807,0.007916790216655674
18170746,0.00020290105476306747,-0.00018627191002452276,8.247246137215412e-05,-0.0012311557679806403,0.006727318169903293,-0.00395643787281818,0.007901009740888379
18171965,0.00020290105476306747,-0.00018627191002452276,8.247246137215412e-05,-0.0012169844369567917,0.0067143082774683595,-0.003950677702907673,0.007884848830315455
18173168,0.00020290105476306747,-0.00018627191002452276,8.247246137215412e-05,-0.0012029991119184898,0.006701469146542006,-0.0039449931381805685,0.00786891774296967
18174360,0.00020290105476306747,-0.00018627191002452276,8.247246137215412e-05,-0.0011891416659952515,0.006688747414152801,-0.003939360552017054,0.007853149777696198
18175546,0.00020290105476306747,-0.00018627191002452276,8.247246137215412e-05,-0.001175353972316593,0.006676089717329314,-0.003933756317797315,0.007837478525768405
18176739,0.00020290105476306747,-0.00018627191002452276,8.247246137215412e-05,-0.0011614849010192579,0.006663357312345823,-0.003928119006309838,0.007821732338492596
18177939,0.00020290105476306747,-0.00018627191002452276,8.247246137215412e-05,-0.001147534452103246,0.006650550199202328,-0.003922448617554621,0.007805911633385954
18179139,0.00020290105476306747,-0.00018627191002452276,8.247246137215412e-05,-0.0011335840031872343,0.0066377430860588334,-0.003916778228799405,0.0077901089634485115
18180337,0.00020290105476306747,-0.00018627191002452276,8.247246137215412e-05,-0.0011196568050194158,0.006624957318103911,-0.003911117290692114,0.00777435073104344
18181541,0.00020290105476306747,-0.00018627191002452276,8.247246137215412e-05,-0.0011056598546070173,0.006612107514583271,-0.003905428000641047,0.007758531907950711
18182736,0.00020290105476306747,-0.00018627191002452276,8.247246137215412e-05,-0.0010917675325614888,0.006599353764411207,-0.0038997812385056442,0.007742849615045121
18183928,0.00020290105476306747,-0.00018627191002452276,8.247246137215412e-05,-0.0010779100866382505,0.006586632032022002,-0.0038941486523421296,0.007727224948626305
18185004,0.00020290105476306747,-0.00018627191002452276,8.247246137215412e-05,-0.0010654011841102265,0.006575148320570001,-0.0038890642037582857,0.007713136554058411
18185984,0.00020290105476306747,-0.00018627191002452276,8.247246137215412e-05,-0.0010540083174954834,0.00656468917816948,-0.003884433386274859,0.007700318192888649
18187168,0.00020290105476306747,-0.00018627191002452276,8.247246137215412e-05,-0.0010402438745650184,0.006552052826534566,-0.003878838602703046,0.007684848239626398
18188355,0.00020290105476306747,-0.00018627191002452276,8.247246137215412e-05,-0.0010264445555122634,0.006539384457116792,-0.0038732296431593445,0.007669357559285504
18189537,0.00020290105476306747,-0.00018627191002452276,8.247246137215412e-05,-0.0010127033633299917,0.00652676945067045,-0.0038676443102354566,0.007653950618785153
18190722,0.00020290105476306747,-0.00018627191002452276,8.247246137215412e-05,-0.00099892729502543,0.006514122426441248,-0.0038620448013396806,0.007638523206416702
18191939,0.00020290105476306747,-0.00018627191002452276,8.247246137215412e-05,-0.0009847792147497747,0.006501133879194887,-0.0038562940820770987,0.007622698725811062
18193143,0.00020290105476306747,-0.00018627191002452276,8.247246137215412e-05,-0.0009707822643373761,0.006488284075674247,-0.0038506047920260317,0.0076070628836479234
18194346,0.00020290105476306747,-0.00018627191002452276,8.247246137215412e-05,-0.0009567969392990742,0.006475444944747893,-0.0038449202272989274,0.007591459620508138
18195548,0.00020290105476306747,-0.00018627191002452276,8.247246137215412e-05,-0.000942823239634869,0.006462616486415826,-0.003839240387895786,0.007575889008409469
18196746,0.00020290105476306747,-0.00018627191002452276,8.247246137215412e-05,-0.0009288960414670505,0.006449830718460904,-0.0038335794497884952,0.007560389907306085
18197934,0.00020290105476306747,-0.00018627191002452276,8.247246137215412e-05,-0.0009150850970401987,0.0064371516764488435,-0.003827965764920831,0.007545039717446102
18199140,0.00020290105476306747,-0.00018627191002452276,8.247246137215412e-05,-0.0009010648958796069,0.006424280527739631,-0.003822267024221839,0.007529476970556108
18200332,0.00020290105476306747,-0.00018627191002452276,8.247246137215412e-05,-0.0008872074499563684,0.006411558795350426,-0.003816634438058324,0.007514114830055917
18201525,0.00020290105476306747,-0.00018627191002452276,8.247246137215412e-05,-0.0008733383786590333,0.006398826390366935,-0.0038109971265708467,0.007498759777218256
18202746,0.00020290105476306747,-0.00018627191002452276,8.247246137215412e-05,-0.0008591437968869912,0.006385795152743429,-0.0038052275060124143,0.007483065158679585
18203957,0.00020290105476306747,-0.00018627191002452276,8.247246137215412e-05,-0.0008450654688559159,0.006372870641062785,-0.0037995051386936086,0.00746752001358763
18205140,0.00020290105476306747,-0.00018627191002452276,8.247246137215412e-05,-0.0008313126512995476,0.0063602449620221565,-0.003793915080445758,0.007452354549991073
18206349,0.00020290105476306747,-0.00018627191002452276,8.247246137215412e-05,-0.0008172575740166656,0.006347341795530086,-0.0037882021637748774,0.007436876592037773
18207549,0.00020290105476306747,-0.00018627191002452276,8.247246137215412e-05,-0.0008033071251006538,0.006334534682386591,-0.0037825317750196613,0.007421534787941741
18208744,0.00020290105476306747,-0.00018627191002452276,8.247246137215412e-05,-0.0007894148030551252,0.006321780932214527,-0.0037768850128842586,0.00740627776192221
18209952,0.00020290105476306747,-0.00018627191002452276,8.247246137215412e-05,-0.0007753713511463399,0.006308888438316742,-0.003771176821537341,0.007390876042703303
18211169,0.00020290105476306747,-0.00018627191002452276,8.247246137215412e-05,-0.0007612232708706846,0.0062958998910703804,-0.003765426102274759,0.0073753813486617205
18212360,0.00020290105476306747,-0.00018627191002452276,8.247246137215412e-05,-0.0007473774503215428,0.006283188831275462,-0.003759798241435207,0.007360238974314157
18213539,0.00020290105476306747,-0.00018627191002452276,8.247246137215412e-05,-0.0007336711342615612,0.006270605842611978,-0.003754227084483207,0.007345270040544146
18214738,0.00020290105476306747,-0.00018627191002452276,8.247246137215412e-05,-0.0007197323107196459,0.006257809402062769,-0.0037485614210519534,0.007330068610800179
18215922,0.00020290105476306747,-0.00018627191002452276,8.247246137215412e-05,-0.0007059678677891808,0.006245173050427854,-0.00374296663748014,0.007315078694684736
18217128,0.00020290105476306747,-0.00018627191002452276,8.247246137215412e-05,-0.000691947666628589,0.006232301901718642,-0.003737267896781148,0.007299832182990889
18218330,0.00020290105476306747,-0.00018627191002452276,8.247246137215412e-05,-0.0006779739669643838,0.0062194734433865745,-0.0037315880573780065,0.007284658402618372
18219528,0.00020290105476306747,-0.00018627191002452276,8.247246137215412e-05,-0.0006640467687965653,0.006206687675431652,-0.0037259271192707157,0.007269557270537271
18220742,0.00020290105476306747,-0.00018627191002452276,8.247246137215412e-05,-0.0006499335646431999,0.00619373114596815,-0.003720190575980022,0.0072542771568638266
18221918,0.00020290105476306747,-0.00018627191002452276,8.247246137215412e-05,-0.0006362621247055083,0.006181180175087525,-0.00371463359499991,0.007239497261090149
18223162,0.00020290105476306747,-0.00018627191002452276,8.247246137215412e-05,-0.0006218001593292427,0.006167903467795435,-0.003708755291990336,0.007223886380754555
18224372,0.00020290105476306747,-0.00018627191002452276,-0.0005283922598664451,-0.0006077334566722641,0.0061549896287090775,-0.003745387614155786,0.007230571600098204
18225570,0.00020290105476306747,-0.00018627191002452276,-0.0005283922598664451,-0.0005938062585044456,0.006142203860754155,-0.003781656640564223,0.007237416741270726
18226752,0.00020290105476306747,-0.00018627191002452276,-0.0005283922598664451,-0.0005800650663221739,0.006129588854307813,-0.0038174412726299767,0.007244390441852281
18227936,0.00020290105476306747,-0.00018627191002452276,-0.0005283922598664451,-0.0005663006233917089,0.006116952502672898,-0.0038532864539885655,0.007251594363483236
18229130,0.00020290105476306747,-0.00018627191002452276,-0.0005283922598664451,-0.0005524199267202771,0.006104209425095121,-0.003889434381811332,0.0072590798515565205
18230332,0.00020290105476306747,-0.00018627191002452276,-0.0005283922598664451,-0.0005384462270560719,0.006091380966763054,-0.00392582450680544,0.007266838685419424
18231515,0.00020290105476306747,-0.00018627191002452276,-0.0005283922598664451,-0.0005246934094997036,0.006078755287722425,-0.003961639413517611,0.007274692836451717
18232698,0.00020290105476306747,-0.00018627191002452276,-0.0005283922598664451,-0.0005109405919433353,0.006066129608681796,-0.003997454320229782,0.007282762508838601
18233872,0.00020290105476306747,-0.00018627191002452276,-0.0005283922598664451,-0.000497292402753837,0.006053599982989743,-0.004032996755124194,0.007290983151450316
18235081,0.00020290105476306747,-0.00018627191002452276,-0.0005283922598664451,-0.00048323732547095506,0.006040696816497672,-0.004069598802643226,0.007299669222372245
18236256,0.00020290105476306747,-0.00018627191002452276,-0.0005283922598664451,-0.0004695775109073601,0.006028156518211334,-0.004105171512184055,0.007308324513269185
18237458,0.00020290105476306747,-0.00018627191002452276,-0.0005283922598664451,-0.00045560381124315485,0.006015328059879267,-0.004141561637178163,0.0073173956634403755
18238649,0.00020290105476306747,-0.00018627191002452276,-0.0005283922598664451,-0.0004417579906940131,0.006002617000084348,-0.004177618741061676,0.007326599437509422
18239845,0.00020290105476306747,-0.00018627191002452276,-0.0005283922598664451,-0.0004278540432743879,0.0059898525773179985,-0.004213827218177277,0.007336057033925034
18241037,0.00020290105476306747,-0.00018627191002452276,-0.0005283922598664451,-0.0004139965973511494,0.005977130844928793,-0.004249914596707208,0.007345696726609567
18242248,0.00020290105476306747,-0.00018627191002452276,-0.0005283922598664451,-0.0003999182693200741,0.00596420633324815,-0.004286577193519076,0.0073557077051559895
18243427,0.00020290105476306747,-0.00018627191002452276,-0.0005283922598664451,-0.0003862119532600924,0.005951623344584666,-0.004322271001645577,0.007365664037974608
18244615,0.00020290105476306747,-0.00018627191002452276,-0.0005283922598664451,-0.0003724010088332407,0.005938944302572606,-0.0043582372815898366,0.007375904971125862
18245816,0.00020290105476306747,-0.00018627191002452276,-0.0005283922598664451,-0.00035843893454313216,0.005926126516834824,-0.004394597131937527,0.007386469922457059
18247001,0.00020290105476306747,-0.00018627191002452276,-0.0005283922598664451,-0.00034466286623857043,0.005913479492605623,-0.004430472587942534,0.0073971021051044885
18248183,0.00020290105476306747,-0.00018627191002452276,-0.0005283922598664451,-0.00033092167405629876,0.005900864486159281,-0.004466257220008287,0.007407912283069516
18249372,0.00020290105476306747,-0.00018627191002452276,-0.0005283922598664451,-0.00031709910425535033,0.005888174771552935,-0.004502253774598964,0.007418992049676467
18250543,0.00020290105476306747,-0.00018627191002452276,-0.0005283922598664451,-0.0003034857911881421,0.005875677163643741,-0.004537705385554123,0.007430104704706694
18251735,0.00020290105476306747,-0.00018627191002452276,-0.0005283922598664451,-0.00028962834526490363,0.005862955431254536,-0.004573792764084054,0.007441620201007681
18252927,0.00020290105476306747,-0.00018627191002452276,-0.0005283922598664451,-0.00027577089934166516,0.005850233698865331,-0.004609880142613985,0.007453340113635629
18254121,0.00020290105476306747,-0.00018627191002452276,-0.0005283922598664451,-0.0002618902026702333,0.005837490621287553,-0.004646028070436751,0.0074652836559075935
18255313,0.00020290105476306747,-0.00018627191002452276,-0.0005283922598664451,-0.00024803275674699485,0.005824768888898348,-0.004682115448966682,0.007477409841312036
18256510,0.00020290105476306747,-0.00018627191002452276,-0.0005283922598664451,-0.00023411718395327302,0.005811993793537712,-0.004718354200728701,0.007489789654955423
18257697,0.00020290105476306747,-0.00018627191002452276,-0.0005283922598664451,-0.00022031786490051794,0.005799325424119938,-0.0047542902060265435,0.007502265704409444
18258889,0.00020290105476306747,-0.00018627191002452276,-0.0005283922598664451,-0.0002064604189772795,0.005786603691730733,-0.004790377584556475,0.007514993386050127
18260164,0.00020290105476306747,-0.00018627191002452276,-0.0005283922598664451,-0.0001916380670040169,0.00577299613401577,-0.004828977758739077,0.007528826980777466
18261377,0.00020290105476306747,-0.00018627191002452276,-0.0005283922598664451,-0.00017753648822474823,0.005760050277146553,-0.0048657009048437795,0.007542197537542015
18262556,0.00020290105476306747,-0.00018627191002452276,-0.0005283922598664451,-0.00016383017216476658,0.005747467288483069,-0.00490139471297028,0.007555388189221483
18263625,0.00020290105476306747,-0.00018627191002452276,-0.0005283922598664451,-0.00015140264725541934,0.005736058285191073,-0.004933758309990831,0.007567513361343254
18264605,0.00020290105476306747,-0.00018627191002452276,-0.0005283922598664451,-0.0001400097806406763,0.005725599142790552,-0.004963427463480203,0.007578766421247489
18265771,0.00020290105476306747,-0.00018627191002452276,-0.0005283922598664451,-0.00012645459444395144,0.005713154897852789,-0.004998727701203273,0.007592325617496411
18266935,0.00020290105476306747,-0.00018627191002452276,-0.0005283922598664451,-0.00011292265899541992,0.0057007319981035995,-0.005033967389633507,0.007606045261567305
